IMU Time (s), Acc x, Acc y, Acc z, Ori yaw, Ori pitch, Ori roll, Mag Time (s), Mag x, Mag y, Mag z
0, 0.296875, -0.03692626953125, -0.23388671875, -3.1103515625, 0.80126953125, 0.03173828125, 0, -321, -1034, -2977
0.020616, 0.2373046875, -0.05572509765625, -0.2039794921875, 3.12109375, 0.83203125, -0.02197265625, 0.403879, -678, -967, -3111
0.041233, 0.19183349609375, -0.0902099609375, -0.18414306640625, 3.046875, 0.84912109375, -0.10791015625, 0.807759, -780, -919, -3126
0.06185, 0.1201171875, -0.0816650390625, -0.19256591796875, 3.076171875, 0.92529296875, -0.0869140625, 1.211638, -753, -1000, -3130
0.082467, 0.0982666015625, -0.0556640625, -0.1661376953125, 3.12646484375, 0.908203125, -0.01904296875, 1.615518, -601, -959, -3134
0.103083, 0.09716796875, -0.0570068359375, -0.16119384765625, 3.12353515625, 0.8955078125, -0.02197265625, 2.019398, -187, -1026, -2806
0.1237, 0.0330810546875, -0.02191162109375, -0.16131591796875, -3.099609375, 0.9404296875, 0.056640625, 2.423278, -34, -763, -2604
0.144317, 0.03802490234375, -0.012451171875, -0.160400390625, -3.083984375, 0.9267578125, 0.076171875, 2.827157, -131, -627, -2819
0.164933, -0.02923583984375, -0.021728515625, -0.145263671875, -3.10400390625, 0.9541015625, 0.05224609375, 3.231037, -129, -629, -2835
0.18555, 0.00579833984375, -0.04730224609375, -0.1114501953125, 3.13916015625, 0.88623046875, -0.00244140625, 3.634916, -74, -657, -2719
0.206167, -0.0504150390625, -0.00128173828125, -0.112060546875, -3.07666015625, 0.91845703125, 0.0849609375, 4.038796, -353, -754, -3044
0.226784, -0.06414794921875, -0.01055908203125, -0.14190673828125, -3.091796875, 0.94775390625, 0.06884765625, 4.442676, -45, -891, -2654
0.247401, -0.10186767578125, 0.02264404296875, -0.115478515625, -3.048828125, 0.9365234375, 0.1259765625, 4.846556, -70, -1034, -2691
0.268017, -0.07977294921875, 0.033447265625, -0.083251953125, -3.03076171875, 0.88232421875, 0.134765625, 5.250435, -138, -1148, -2690
0.288634, -0.087646484375, 0.0477294921875, -0.05621337890625, -3.01171875, 0.853515625, 0.1494140625, 5.654315, -260, -1182, -2845
0.309251, -0.11602783203125, 0.028076171875, -0.0478515625, -3.04443359375, 0.85888671875, 0.11279296875, 6.058194, -688, -988, -3129
0.329867, -0.08599853515625, 0.0576171875, -0.04052734375, -2.99755859375, 0.81787109375, 0.1552734375, 6.462074, -846, -886, -3149
0.350484, -0.0081787109375, 0.074951171875, -0.0506591796875, -2.94970703125, 0.75048828125, 0.181640625, 6.865953, -789, -905, -3173
0.371101, -0.052001953125, 0.07171630859375, -0.0513916015625, -2.96728515625, 0.775390625, 0.1728515625, 7.269833, -253, -885, -2933
0.391718, -0.06695556640625, 0.04052734375, -0.02520751953125, -3.01953125, 0.75830078125, 0.1162109375, 7.673713, -19, -820, -2586
0.412334, -0.1072998046875, 0.04669189453125, -0.0245361328125, -3.01806640625, 0.7763671875, 0.1220703125, 8.077591999999999, -129, -778, -2818
0.432951, -0.14208984375, 0.04718017578125, -0.0257568359375, -3.02392578125, 0.79052734375, 0.119140625, 8.481472, -26, -1011, -2468
0.453568, -0.11260986328125, 0.0584716796875, -0.010009765625, -3.00146484375, 0.74267578125, 0.12939453125, 8.885351999999999, -146, -1115, -2727
0.474185, -0.15985107421875, 0.07086181640625, 0.0010986328125, -2.9931640625, 0.75634765625, 0.14111328125, 9.289230999999999, -479, -1024, -3061
0.494801, -0.18316650390625, 0.04595947265625, 0.02056884765625, -3.0341796875, 0.7490234375, 0.10009765625, 9.693111, -673, -958, -3124
0.515418, -0.1451416015625, 0.03570556640625, 0.038818359375, -3.044921875, 0.6943359375, 0.08056640625, 10.09699, -614, -973, -3118
0.536035, -0.1143798828125, 0.01422119140625, 0.04632568359375, -3.07763671875, 0.65087890625, 0.04833984375, 10.50087, -167, -656, -2860
0.556651, -0.07568359375, 0.01043701171875, 0.0267333984375, -3.08251953125, 0.61376953125, 0.04150390625, 10.90475, -302, -625, -2984
0.577268, -0.05303955078125, -0.0050048828125, 0.03216552734375, -3.1142578125, 0.5732421875, 0.017578125, 11.30863, -494, -709, -3132
0.597885, -0.08074951171875, -0.00543212890625, 0.04168701171875, -3.12060546875, 0.5751953125, 0.01318359375, 11.712509, -549, -842, -3145
0.618502, -0.1031494140625, -0.008056640625, 0.06298828125, -3.130859375, 0.56591796875, 0.00634765625, 12.116389, -452, -1061, -3093
0.639118, -0.0479736328125, -0.0255126953125, 0.076171875, 3.107421875, 0.48974609375, -0.017578125, 12.520268, -514, -1181, -3029
0.659735, 0.04083251953125, -0.02520751953125, 0.045166015625, 3.08935546875, 0.39453125, -0.021484375, 12.924148, -772, -1213, -3116
0.680352, 0.04949951171875, 0.00555419921875, 0.0205078125, -3.10546875, 0.37451171875, 0.01416015625, 13.328028, -715, -1204, -3109
0.700969, 0.03411865234375, 0.029296875, 0.01446533203125, -3.0361328125, 0.37255859375, 0.041015625, 13.731907, -765, -1213, -3098
0.721585, -0.0213623046875, 0.0364990234375, 0.02752685546875, -3.03515625, 0.4052734375, 0.0458984375, 14.135787, -759, -1191, -3102
0.742202, -0.04779052734375, 0.00030517578125, 0.0399169921875, 3.1318359375, 0.40625, -0.00341796875, 14.539667, -250, -1148, -2881
0.762819, -0.08453369140625, -0.0555419921875, 0.0728759765625, 2.97216796875, 0.4072265625, -0.0732421875, 14.943546, -186, -1172, -2779
0.783436, -0.11260986328125, -0.0411376953125, 0.105712890625, 3.00537109375, 0.40087890625, -0.0576171875, 15.347426, -300, -1120, -2938
0.804052, -0.0621337890625, -0.02490234375, 0.1016845703125, 3.0166015625, 0.33203125, -0.04296875, 15.751305, -319, -1133, -2926
0.824669, -0.0704345703125, -0.0048828125, 0.0799560546875, 3.068359375, 0.3271484375, -0.0244140625, 16.155185, -292, -1177, -2899
0.845286, -0.0489501953125, -0.02691650390625, 0.1016845703125, 2.95703125, 0.27587890625, -0.05224609375, 16.559065, -336, -1139, -2961
0.8659019999999999, -0.03955078125, -0.005126953125, 0.08880615234375, 3.01416015625, 0.24755859375, -0.03173828125, 16.962945, -325, -1137, -2938
0.8865189999999999, 0.0543212890625, -0.00531005859375, 0.0784912109375, 2.85302734375, 0.12353515625, -0.0361328125, 17.366824, -304, -1182, -2909
0.9071360000000001, 0.07916259765625, -0.0001220703125, 0.05706787109375, 2.693359375, 0.07373046875, -0.03515625, 17.770704, -323, -1144, -2954
0.927753, 0.0274658203125, 0.0037841796875, 0.07525634765625, 2.8349609375, 0.1083984375, -0.03369140625, 18.174583, -431, -1243, -2966
0.948369, 0.02197265625, -0.003662109375, 0.08056640625, 2.669921875, 0.0908203125, -0.0458984375, 18.578463, -557, -1221, -3030
0.968986, 0.0943603515625, -0.00384521484375, 0.08306884765625, 1.31298828125, -0.0126953125, -0.05029296875, 18.982343, -485, -1123, -3069
0.989603, 0.15484619140625, -0.00457763671875, 0.07110595703125, 0.4912109375, -0.10400390625, -0.0556640625, 19.386222, -830, -1169, -3105
1.01022, 0.13714599609375, -0.00634765625, 0.0643310546875, 0.52685546875, -0.1064453125, -0.06201171875, 19.790102, -863, -1206, -3078
1.030836, 0.084716796875, -0.020263671875, 0.05572509765625, 0.86865234375, -0.06982421875, -0.0830078125, 20.193981, -1002, -1002, -3137
1.051453, 0.07257080078125, -0.0194091796875, 0.0670166015625, 0.83203125, -0.07666015625, -0.08447265625, 20.597861, -714, -786, -3198
1.07207, 0.11077880859375, -0.0098876953125, 0.04632568359375, 0.50390625, -0.14404296875, -0.07958984375, 21.001741, -923, -876, -3211
1.092686, 0.135986328125, 0.00933837890625, 0.00262451171875, 0.30615234375, -0.203125, -0.06494140625, 21.40562, -1222, -818, -3059
1.113303, 0.1173095703125, 0.0069580078125, 0.01239013671875, 0.33837890625, -0.20068359375, -0.0712890625, 21.8095, -1304, -705, -3016
1.13392, 0.09686279296875, -0.00665283203125, 0.02667236328125, 0.4296875, -0.1943359375, -0.09033203125, 22.21338, -1369, -686, -2927
1.154537, 0.1248779296875, -0.009033203125, 0.031005859375, 0.3701171875, -0.244140625, -0.0966796875, 22.617259, -570, -1148, -3072
1.175153, 0.13507080078125, 0.0067138671875, 0.02056884765625, 0.28466796875, -0.27734375, -0.0830078125, 23.021139, -441, -1198, -3005
1.19577, 0.1168212890625, 0.02044677734375, 0.01104736328125, 0.2470703125, -0.279296875, -0.07177734375, 23.425019, -355, -1251, -2901
1.216387, 0.09979248046875, 0.0281982421875, 0.011474609375, 0.23046875, -0.27880859375, -0.06689453125, 23.828898, -188, -1099, -2847
1.237004, 0.0997314453125, 0.0372314453125, 0.013427734375, 0.1953125, -0.2958984375, -0.06005859375, 24.232778, -283, -1205, -2829
1.25762, 0.10394287109375, 0.053955078125, -0.0233154296875, 0.13525390625, -0.33154296875, -0.04638671875, 24.636658, -279, -1175, -2840
1.278237, 0.10040283203125, 0.0550537109375, -0.00750732421875, 0.13720703125, -0.33837890625, -0.04833984375, 25.040537, -260, -1119, -2798
1.298854, 0.07720947265625, 0.04852294921875, -0.01092529296875, 0.1748046875, -0.33056640625, -0.06005859375, 25.444417, -98, -1052, -2589
1.31947, 0.0645751953125, 0.0400390625, -0.01446533203125, 0.21240234375, -0.333984375, -0.07470703125, 25.848296, -305, -1044, -2941
1.340087, 0.0107421875, 0.0379638671875, -0.00506591796875, 0.2646484375, -0.287109375, -0.07958984375, 26.252176, -623, -1145, -3079
1.360704, -0.00384521484375, 0.0172119140625, 0.02001953125, 0.35302734375, -0.27734375, -0.10498046875, 26.656056, -583, -1112, -3043
1.381321, -0.0081787109375, 0, 0.01495361328125, 0.41015625, -0.28759765625, -0.12890625, 27.059935, -336, -1038, -2942
1.401938, -0.00439453125, -0.01123046875, 0.0079345703125, 0.4306640625, -0.306640625, -0.14599609375, 27.463815, -79, -616, -2652
1.422554, -0.0556640625, -0.0089111328125, 0.0057373046875, 0.49365234375, -0.265625, -0.146484375, 27.867695, -232, -585, -2903
1.443171, -0.032470703125, -0.02679443359375, 0.00531005859375, 0.49853515625, -0.3017578125, -0.169921875, 28.271574, -218, -555, -2907
1.463788, -0.00091552734375, -0.0233154296875, -0.0101318359375, 0.4365234375, -0.3515625, -0.171875, 28.675454, -395, -665, -3058
1.484404, -0.02838134765625, -0.00628662109375, -0.01934814453125, 0.41796875, -0.337890625, -0.15673828125, 29.079334, -540, -701, -3133
1.505021, -0.04754638671875, 0.00384521484375, -0.01141357421875, 0.40673828125, -0.3251953125, -0.1455078125, 29.483213, -747, -722, -3192
1.525638, -0.0478515625, -0.0018310546875, -0.02203369140625, 0.41845703125, -0.33837890625, -0.15673828125, 29.887093, -517, -964, -3086
1.546254, 0.01458740234375, -0.00872802734375, -0.036376953125, 0.365234375, -0.4169921875, -0.169921875, 30.290973, -357, -1097, -2966
1.566871, 0.046875, -0.014404296875, -0.0555419921875, 0.3486328125, -0.46533203125, -0.18310546875, 30.694852, -579, -1048, -3104
1.587488, 0.02911376953125, -0.0201416015625, -0.06280517578125, 0.37353515625, -0.45751953125, -0.19384765625, 31.098732, -745, -1015, -3170
1.608105, 0.02349853515625, -0.0220947265625, -0.0631103515625, 0.3798828125, -0.4580078125, -0.1982421875, 31.502611, -774, -1049, -3131
1.628722, 0.02069091796875, -0.00885009765625, -0.06939697265625, 0.3515625, -0.46533203125, -0.18505859375, 31.906491, -943, -1023, -3116
1.649338, -0.00762939453125, -0.00341796875, -0.0789794921875, 0.361328125, -0.44677734375, -0.181640625, 32.31037, -404, -961, -3079
1.669955, -0.05621337890625, -0.017822265625, -0.0562744140625, 0.44287109375, -0.388671875, -0.1953125, 32.71425, -420, -945, -3084
1.690572, -0.06817626953125, -0.018798828125, -0.03570556640625, 0.45703125, -0.37109375, -0.1923828125, 33.11813, -526, -922, -3130
1.711188, -0.0399169921875, -0.00982666015625, -0.05059814453125, 0.40234375, -0.41064453125, -0.18603515625, 33.52201, -559, -920, -3136
1.731805, -0.02880859375, -0.00128173828125, -0.0538330078125, 0.3701171875, -0.42626953125, -0.17724609375, 33.925889, -606, -1030, -3152
1.752422, -0.048828125, 0.00567626953125, -0.0572509765625, 0.37109375, -0.40966796875, -0.16943359375, 34.329769, -583, -968, -3137
1.773039, -0.0648193359375, 0.005859375, -0.0430908203125, 0.38623046875, -0.3876953125, -0.16650390625, 34.733648, -439, -977, -3103
1.793655, -0.0723876953125, 0.006591796875, -0.04632568359375, 0.3916015625, -0.38134765625, -0.166015625, 35.137528, -433, -983, -3081
1.814272, -0.06427001953125, 0.00982666015625, -0.044921875, 0.37451171875, -0.38916015625, -0.16162109375, 35.541408, -650, -1097, -3087
1.834889, -0.0517578125, 0.00079345703125, -0.039306640625, 0.38525390625, -0.39794921875, -0.1708984375, 35.945288, -406, -1150, -2990
1.855506, -0.06500244140625, -0.00299072265625, -0.04754638671875, 0.40869140625, -0.38525390625, -0.17626953125, 36.349167, -614, -1051, -3095
1.876122, -0.0631103515625, -0.0098876953125, -0.0423583984375, 0.4248046875, -0.3818359375, -0.1826171875, 36.753047, -604, -1152, -3063
1.896739, -0.05743408203125, -0.00775146484375, -0.04315185546875, 0.4140625, -0.384765625, -0.1787109375, 37.156926, -602, -1146, -3046
1.917356, -0.066650390625, 0.002685546875, -0.0421142578125, 0.39892578125, -0.37158203125, -0.16455078125, 37.560806, -344, -967, -3026
1.937972, -0.0709228515625, 0.0069580078125, -0.03289794921875, 0.3935546875, -0.35888671875, -0.15625, 37.964685, -564, -867, -3148
1.958589, -0.0689697265625, 0.00775146484375, -0.03021240234375, 0.390625, -0.3544921875, -0.15283203125, 38.368565, -519, -730, -3141
1.979206, -0.0665283203125, 0.00201416015625, -0.03265380859375, 0.40576171875, -0.3515625, -0.15771484375, 38.772445, -486, -728, -3128
1.999823, -0.0548095703125, -0.01031494140625, -0.033447265625, 0.42822265625, -0.3564453125, -0.17041015625, 39.176325, -760, -859, -3195
2.020439, -0.0418701171875, -0.016845703125, -0.03704833984375, 0.4326171875, -0.36328125, -0.17626953125, 39.580204, -760, -895, -3161
2.041056, -0.04376220703125, -0.02459716796875, -0.03619384765625, 0.458984375, -0.3525390625, -0.1826171875, 39.984084, -712, -818, -3171
2.061673, -0.05780029296875, -0.0272216796875, -0.0384521484375, 0.49072265625, -0.3291015625, -0.18310546875, 40.387963, -743, -907, -3164
2.08229, -0.05419921875, -0.03533935546875, -0.0308837890625, 0.513671875, -0.31982421875, -0.18798828125, 40.791843, -730, -924, -3154
2.102906, -0.05523681640625, -0.03802490234375, -0.01904296875, 0.5302734375, -0.30419921875, -0.18505859375, 41.195723, -604, -874, -3160
2.123523, -0.04486083984375, -0.0421142578125, -0.014892578125, 0.533203125, -0.302734375, -0.185546875, 41.599603, -439, -956, -3080
2.14414, -0.027099609375, -0.03643798828125, -0.01763916015625, 0.498046875, -0.3115234375, -0.17578125, 42.003482, -374, -973, -3063
2.164757, -0.01513671875, -0.03863525390625, -0.0196533203125, 0.494140625, -0.31298828125, -0.1748046875, 42.407362, -458, -971, -3067
2.185373, -0.0263671875, -0.0294189453125, -0.0159912109375, 0.4931640625, -0.287109375, -0.1591796875, 42.811241, -463, -728, -3121
2.20599, -0.0264892578125, -0.04449462890625, 0.00482177734375, 0.55126953125, -0.2666015625, -0.16845703125, 43.215121, -750, -742, -3188
2.226607, -0.01641845703125, -0.04205322265625, 0.01397705078125, 0.53759765625, -0.2607421875, -0.15966796875, 43.619, -475, -653, -3116
2.247223, -0.00946044921875, -0.03509521484375, 0.0115966796875, 0.51513671875, -0.2548828125, -0.1474609375, 44.02288, -644, -756, -3196
2.26784, -0.0155029296875, -0.03302001953125, 0.02105712890625, 0.5341796875, -0.23046875, -0.13916015625, 44.42676, -294, -591, -2991
2.288457, -0.00238037109375, -0.02532958984375, 0.0377197265625, 0.49365234375, -0.22509765625, -0.12353515625, 44.830639, -580, -666, -3155
2.309073, 0.03668212890625, -0.01556396484375, 0.030517578125, 0.3974609375, -0.2529296875, -0.1083984375, 45.234519, -631, -685, -3174
2.32969, 0.05841064453125, -0.0023193359375, 0.02960205078125, 0.3212890625, -0.26025390625, -0.08837890625, 45.638399, -631, -707, -3170
2.350307, 0.06719970703125, 0.00225830078125, 0.03265380859375, 0.2939453125, -0.251953125, -0.07763671875, 46.042278, -650, -703, -3173
2.370924, 0.0711669921875, -0.0050048828125, 0.033203125, 0.3203125, -0.23828125, -0.08056640625, 46.446158, -600, -676, -3164
2.391541, 0.0924072265625, -0.0064697265625, 0.02923583984375, 0.30029296875, -0.244140625, -0.0771484375, 46.850038, -648, -703, -3182
2.412157, 0.148681640625, -0.01776123046875, 0.02740478515625, 0.27978515625, -0.28662109375, -0.08447265625, 47.253917, -642, -711, -3167
2.432774, 0.17596435546875, -0.009765625, 0.01422119140625, 0.22314453125, -0.3017578125, -0.0703125, 47.657797, -899, -728, -3207
2.453391, 0.16949462890625, -0.00836181640625, 0.00726318359375, 0.21923828125, -0.27783203125, -0.06298828125, 48.061677, -693, -853, -3204
2.474007, 0.14520263671875, 0.00128173828125, -0.003662109375, 0.19189453125, -0.23388671875, -0.0458984375, 48.465556, -1045, -792, -3160
2.494624, 0.1221923828125, 0.01007080078125, -0.00140380859375, 0.154296875, -0.18603515625, -0.02880859375, 48.869436, -1294, -652, -3014
2.515241, 0.1163330078125, 0.0118408203125, 0.01531982421875, 0.12890625, -0.15380859375, -0.01953125, 49.273315, -1255, -684, -3052
2.535857, 0.10107421875, 0.01654052734375, 0.03460693359375, 0.0693359375, -0.111328125, -0.00732421875, 49.677195, -1156, -879, -3118
2.556474, 0.09637451171875, 0.02349853515625, 0.056884765625, -0.08154296875, -0.08154296875, 0.0068359375, 50.081075, -459, -1241, -2992
2.577091, 0.0997314453125, 0.03228759765625, 0.07965087890625, -0.3505859375, -0.0615234375, 0.0224609375, 50.484954, -552, -1226, -3033
2.597708, 0.08642578125, 0.0540771484375, 0.0736083984375, -1.13623046875, -0.0244140625, 0.0537109375, 50.888834, -486, -1219, -3034
2.618325, 0.0888671875, 0.06524658203125, 0.0535888671875, -1.5009765625, -0.0048828125, 0.07470703125, 51.292714, -136, -1085, -2674
2.638941, 0.0675048828125, 0.0693359375, 0.0582275390625, -2.03173828125, 0.04248046875, 0.0859375, 51.696593, -116, -787, -2771
2.659558, 0.077392578125, 0.08453369140625, 0.06005859375, -2.03271484375, 0.0546875, 0.1103515625, 52.100473, -68, -711, -2687
2.680175, 0.0576171875, 0.0908203125, 0.06005859375, -2.25439453125, 0.10107421875, 0.12451171875, 52.504353, -28, -678, -2569
2.700791, -0.0096435546875, 0.0560302734375, 0.066162109375, -2.7197265625, 0.19970703125, 0.0908203125, 52.908232, -201, -883, -2881
2.721408, 0.01422119140625, 0.07952880859375, 0.0670166015625, -2.5810546875, 0.19580078125, 0.125, 53.312112, -178, -1104, -2756
2.742025, -0.01837158203125, 0.0347900390625, 0.06890869140625, -2.84326171875, 0.255859375, 0.080078125, 53.715992, -188, -1041, -2769
2.762642, -0.04345703125, -0.0299072265625, 0.078857421875, -3.103515625, 0.3037109375, 0.01171875, 54.119871, -325, -981, -2978
2.783258, -0.0238037109375, -0.045166015625, 0.08123779296875, -3.138671875, 0.30517578125, 0.0009765625, 54.523751, -528, -960, -3111
2.803875, -0.00604248046875, -0.03436279296875, 0.07574462890625, -3.07861328125, 0.31103515625, 0.02001953125, 54.92763, -555, -1127, -3010
2.824492, 0.00872802734375, -0.02288818359375, 0.0509033203125, -3.01904296875, 0.32666015625, 0.04150390625, 55.33151, -792, -1212, -3043
2.845109, 0.02655029296875, -0.04510498046875, 0.04168701171875, -3.07861328125, 0.33447265625, 0.02197265625, 55.73539, -1066, -1182, -2980
2.865725, 0.00677490234375, -0.03887939453125, 0.042724609375, -3.0498046875, 0.37890625, 0.03662109375, 56.139269, -1316, -1118, -2828
2.886342, -0.0169677734375, -0.043701171875, 0.0303955078125, -3.05859375, 0.4326171875, 0.0380859375, 56.543149, -178, -1022, -2786
2.906959, -0.03448486328125, -0.04998779296875, 0.011474609375, -3.068359375, 0.48291015625, 0.0380859375, 56.947028, -182, -947, -2818
2.927575, -0.04949951171875, -0.04571533203125, 0.0098876953125, -3.05224609375, 0.5205078125, 0.05078125, 57.350908, -176, -961, -2833
2.948192, -0.05810546875, -0.01824951171875, 0.00634765625, -2.98828125, 0.55078125, 0.0947265625, 57.754788, -176, -975, -2844
2.968809, -0.06402587890625, 0.00836181640625, -0.0103759765625, -2.9326171875, 0.5849609375, 0.140625, 58.158668, -66, -794, -2650
2.989426, -0.073486328125, 0.02520751953125, -0.01043701171875, -2.90283203125, 0.61181640625, 0.1708984375, 58.562547, -241, -547, -2904
3.010042, -0.08575439453125, 0.03070068359375, -0.0177001953125, -2.8974609375, 0.6455078125, 0.1884765625, 58.966427, -353, -509, -3004
3.030659, -0.1033935546875, 0.0374755859375, -0.0098876953125, -2.89306640625, 0.67236328125, 0.203125, 59.370306, -129, -614, -2802
3.051276, -0.1285400390625, 0.06561279296875, -0.01788330078125, -2.85986328125, 0.71044921875, 0.2509765625, 59.774186, -298, -627, -3002
3.071893, -0.13006591796875, 0.0501708984375, -0.04510498046875, -2.8828125, 0.74853515625, 0.24755859375, 60.178066, -353, -513, -2998
3.092509, -0.0997314453125, 0.02349853515625, -0.04833984375, -2.91064453125, 0.7470703125, 0.21923828125, 60.581945, -403, -393, -2977
3.113126, -0.09344482421875, -0.00775146484375, -0.0584716796875, -2.9541015625, 0.77001953125, 0.18408203125, 60.985825, -439, -532, -3078
3.133743, -0.11798095703125, -0.005859375, -0.060791015625, -2.95654296875, 0.80517578125, 0.19580078125, 61.389705, -528, -563, -3087
3.15436, -0.13385009765625, 0.0223388671875, -0.05035400390625, -2.92041015625, 0.81787109375, 0.2421875, 61.793584, -477, -526, -3086
3.174976, -0.09771728515625, 0.04949951171875, -0.03790283203125, -2.87109375, 0.791015625, 0.28369140625, 62.197464, -481, -602, -3091
3.195593, -0.06951904296875, 0.06982421875, -0.03826904296875, -2.83251953125, 0.779296875, 0.3203125, 62.601343, -515, -599, -3135
3.21621, -0.05206298828125, 0.08868408203125, -0.05767822265625, -2.80029296875, 0.78759765625, 0.3642578125, 63.005223, -471, -551, -3118
3.236826, -0.04022216796875, 0.063232421875, -0.05767822265625, -2.830078125, 0.7978515625, 0.33544921875, 63.409103, -466, -580, -3111
3.257443, -0.0457763671875, 0.03387451171875, -0.06219482421875, -2.87255859375, 0.82421875, 0.30224609375, 63.812983, -519, -603, -3131
3.27806, -0.0933837890625, 0.0054931640625, -0.06591796875, -2.92431640625, 0.876953125, 0.267578125, 64.21686200000001, -506, -574, -3117
3.298677, -0.0665283203125, -0.02166748046875, -0.04486083984375, -2.951171875, 0.85888671875, 0.224609375, 64.62074200000001, -498, -589, -3119
3.319293, -0.0399169921875, -0.03265380859375, -0.03656005859375, -2.9580078125, 0.8466796875, 0.2109375, 65.024621, -777, -604, -3185
3.33991, -0.02105712890625, -0.01605224609375, -0.02862548828125, -2.92919921875, 0.83447265625, 0.23974609375, 65.428501, -840, -596, -3169
3.360527, -0.00946044921875, 0.00823974609375, -0.0341796875, -2.89208984375, 0.8349609375, 0.28466796875, 65.832381, -745, -627, -3179
3.381144, -0.0264892578125, -0.03997802734375, -0.03826904296875, -2.96044921875, 0.8681640625, 0.2177734375, 66.23626, -752, -589, -3158
3.40176, -0.03497314453125, -0.08050537109375, 0.00030517578125, -3.013671875, 0.8583984375, 0.14892578125, 66.64014, -140, -617, -2820
3.422377, -0.0189208984375, -0.09014892578125, 0.013916015625, -3.02197265625, 0.8466796875, 0.1357421875, 67.04402, -228, -669, -2950
3.442994, 0.021728515625, -0.072998046875, 0.009033203125, -2.98974609375, 0.828125, 0.1669921875, 67.44789900000001, -705, -709, -3177
3.46361, 0.07769775390625, -0.04742431640625, 0.00909423828125, -2.93798828125, 0.791015625, 0.20947265625, 67.85177899999999, -890, -549, -3139
3.484227, 0.11236572265625, -0.02191162109375, 0.009765625, -2.8876953125, 0.76611328125, 0.25146484375, 68.255658, -952, -467, -3100
3.504844, 0.0635986328125, -0.006591796875, 0.02825927734375, -2.8837890625, 0.79296875, 0.2705078125, 68.659538, -932, -612, -3168
3.525461, 0.06475830078125, -0.00628662109375, 0.04168701171875, -2.88232421875, 0.7880859375, 0.26953125, 69.063418, -678, -813, -3179
3.546078, 0.0760498046875, -0.00830078125, 0.021240234375, -2.880859375, 0.7998046875, 0.27783203125, 69.467297, -625, -955, -3175
3.566694, 0.068359375, -0.05108642578125, 0.019775390625, -2.94140625, 0.8193359375, 0.21826171875, 69.871177, -503, -1132, -3073
3.587311, 0.06866455078125, -0.0692138671875, 0.01763916015625, -2.9658203125, 0.82763671875, 0.19384765625, 70.275057, -452, -1253, -2963
3.607928, 0.03656005859375, -0.0445556640625, 0.0224609375, -2.93994140625, 0.84619140625, 0.232421875, 70.67893599999999, -479, -1286, -2973
3.628544, 0.04876708984375, -0.00457763671875, 0.0101318359375, -2.88330078125, 0.841796875, 0.2998046875, 71.08281599999999, -475, -1245, -2996
3.649161, 0.07073974609375, 0.03167724609375, 0.00335693359375, -2.82763671875, 0.82470703125, 0.3583984375, 71.486695, -490, -1269, -2961
3.669778, 0.052978515625, 0.0343017578125, 0.00982666015625, -2.8310546875, 0.833984375, 0.36083984375, 71.890575, -507, -1285, -2977
3.690394, 0.0421142578125, 0.01019287109375, 0.0147705078125, -2.865234375, 0.84521484375, 0.32470703125, 72.294455, -471, -1266, -2972
3.711011, 0.01708984375, 0.0203857421875, 0.02166748046875, -2.86083984375, 0.85546875, 0.337890625, 72.698335, -652, -1245, -3053
3.731628, 0.0404052734375, 0.02276611328125, 0.03515625, -2.84912109375, 0.83056640625, 0.33544921875, 73.102214, -669, -1232, -3018
3.752245, 0.09747314453125, 0.0281982421875, 0.0230712890625, -2.81787109375, 0.796875, 0.35009765625, 73.506094, -652, -1256, -3032
3.772862, 0.0748291015625, -0.0606689453125, 0.00250244140625, -2.947265625, 0.8486328125, 0.22509765625, 73.90997299999999, -644, -1246, -3045
3.793478, 0.00390625, -0.04840087890625, -0.01971435546875, -2.94873046875, 0.9111328125, 0.25390625, 74.31385299999999, -630, -1257, -3042
3.814095, -0.0009765625, -0.04205322265625, -0.01611328125, -2.94189453125, 0.9091796875, 0.2626953125, 74.717733, -634, -1261, -3046
3.834712, -0.00665283203125, -0.02947998046875, -0.02581787109375, -2.9267578125, 0.916015625, 0.287109375, 75.121612, -499, -1237, -3022
3.855328, 0.01666259765625, -0.01318359375, -0.02459716796875, -2.8994140625, 0.89453125, 0.3125, 75.525492, -370, -1224, -2922
3.875945, 0.0517578125, -0.00640869140625, 0.0069580078125, -2.8779296875, 0.841796875, 0.30615234375, 75.929372, -416, -1227, -2958
3.896562, 0.072021484375, -0.0111083984375, 0.03216552734375, -2.87646484375, 0.806640625, 0.28662109375, 76.333251, -447, -1270, -2951
3.917179, 0.0765380859375, -0.039306640625, 0.0211181640625, -2.91357421875, 0.81396484375, 0.24755859375, 76.73713100000001, -423, -1245, -2967
3.937795, 0.0543212890625, -0.01678466796875, 0.00872802734375, -2.88916015625, 0.8310546875, 0.28564453125, 77.14100999999999, -437, -1258, -2953
3.958412, 0.05010986328125, -0.01678466796875, 0.0084228515625, -2.89013671875, 0.830078125, 0.2841796875, 77.54489, -423, -1256, -2952
3.979029, 0.05810546875, 0.02935791015625, -0.00799560546875, -2.8232421875, 0.82080078125, 0.36083984375, 77.94877, -439, -1260, -2951
3.999646, 0.0704345703125, 0.00262451171875, -0.00128173828125, -2.853515625, 0.80859375, 0.31494140625, 78.352649, -404, -1262, -2935
4.020262, 0.0302734375, 0.0357666015625, 0.00103759765625, -2.82421875, 0.82275390625, 0.36083984375, 78.756529, -416, -1264, -2950
4.040879, -0.00579833984375, 0.05194091796875, -0.02783203125, -2.81787109375, 0.85986328125, 0.3994140625, 79.160409, -418, -1251, -2963
4.061496, 0.03021240234375, 0.11602783203125, -0.03680419921875, -2.71826171875, 0.81298828125, 0.4951171875, 79.564288, -441, -1254, -2958
4.082112, -0.0185546875, 0.06402587890625, -0.0281982421875, -2.8056640625, 0.85400390625, 0.412109375, 79.96816800000001, -439, -1256, -2955
4.102729, -0.03546142578125, 0.0621337890625, -0.0556640625, -2.81396484375, 0.880859375, 0.42431640625, 80.37204800000001, -426, -1243, -2981
4.123346, -0.09515380859375, 0.01702880859375, -0.04931640625, -2.89013671875, 0.92333984375, 0.345703125, 80.775927, -590, -1194, -3038
4.143963, -0.07232666015625, 0.003662109375, -0.05291748046875, -2.89892578125, 0.9091796875, 0.32275390625, 81.179807, -296, -1070, -2972
4.164579, -0.11505126953125, 0.0699462890625, -0.07281494140625, -2.83251953125, 0.92529296875, 0.4375, 81.583686, -197, -1107, -2820
4.185196, -0.10443115234375, 0.05145263671875, -0.07391357421875, -2.84912109375, 0.91943359375, 0.4052734375, 81.987566, -404, -1166, -2994
4.205813, -0.136962890625, 0.0296630859375, -0.08197021484375, -2.8857421875, 0.94677734375, 0.37109375, 82.391446, -550, -1183, -3052
4.22643, -0.14678955078125, 0.007568359375, -0.0693359375, -2.91455078125, 0.94287109375, 0.3232421875, 82.795326, -515, -1262, -2957
4.247046, -0.155517578125, -0.02099609375, -0.08648681640625, -2.95166015625, 0.962890625, 0.279296875, 83.19920500000001, -361, -1191, -2934
4.267663, -0.21368408203125, -0.027587890625, -0.10064697265625, -2.97216796875, 1.00244140625, 0.2705078125, 83.60308499999999, -279, -1233, -2777
4.28828, -0.177978515625, -0.01324462890625, -0.083740234375, -2.94775390625, 0.958984375, 0.283203125, 84.006964, -121, -1022, -2718
4.308897, -0.16876220703125, 0.011474609375, -0.071533203125, -2.9150390625, 0.93115234375, 0.314453125, 84.410844, -159, -853, -2802
4.329513, -0.14324951171875, 0.02081298828125, -0.05731201171875, -2.89501953125, 0.89453125, 0.31787109375, 84.814724, -108, -977, -2706
4.35013, -0.15008544921875, 0.01153564453125, -0.047119140625, -2.90869140625, 0.88623046875, 0.29443359375, 85.218603, -117, -921, -2714
4.370747, -0.15325927734375, 0.0025634765625, -0.03729248046875, -2.9208984375, 0.8759765625, 0.27197265625, 85.622483, -108, -929, -2713
4.391363, -0.13232421875, 0.00299072265625, -0.02154541015625, -2.91357421875, 0.84228515625, 0.2626953125, 86.026363, -112, -933, -2724
4.41198, -0.09222412109375, 0.01904296875, -0.00860595703125, -2.876953125, 0.79296875, 0.27783203125, 86.43024200000001, -171, -939, -2831
4.432597, -0.0877685546875, 0.00677490234375, -0.0426025390625, -2.89208984375, 0.810546875, 0.2705078125, 86.83412199999999, -182, -907, -2827
4.453213, -0.1319580078125, -0.01202392578125, -0.03900146484375, -2.93310546875, 0.8369140625, 0.236328125, 87.238001, -180, -947, -2820
4.47383, -0.101806640625, -0.020751953125, -0.03912353515625, -2.93603515625, 0.80908203125, 0.2197265625, 87.641881, -271, -880, -2938
4.494447, -0.11651611328125, -0.0068359375, -0.04156494140625, -2.919921875, 0.8125, 0.23974609375, 88.045761, -241, -868, -2910
4.515064, -0.1517333984375, -0.0098876953125, -0.03057861328125, -2.93505859375, 0.82421875, 0.22802734375, 88.449641, -229, -881, -2903
4.535681, -0.1741943359375, -0.0166015625, 0.003662109375, -2.9501953125, 0.8095703125, 0.2041015625, 88.85352, -144, -945, -2771
4.556297, -0.16796875, -0.01971435546875, 0.0189208984375, -2.95263671875, 0.7880859375, 0.193359375, 89.2574, -106, -895, -2722
4.576914, -0.11260986328125, -0.00634765625, 0.02960205078125, -2.91552734375, 0.73095703125, 0.20703125, 89.66127899999999, -102, -895, -2731
4.597531, -0.087158203125, 0.02215576171875, 0.031494140625, -2.86083984375, 0.69873046875, 0.244140625, 90.06515899999999, -142, -977, -2793
4.618147, -0.0911865234375, 0.0419921875, 0.05133056640625, -2.8310546875, 0.68017578125, 0.26220703125, 90.469039, -123, -998, -2690
4.638764, -0.0146484375, 0.033203125, 0.08416748046875, -2.80224609375, 0.5908203125, 0.23876953125, 90.872918, -136, -979, -2726
4.659381, 0.03753662109375, -0.05914306640625, 0.08453369140625, -2.94873046875, 0.54638671875, 0.11865234375, 91.276798, -133, -990, -2729
4.679997, 0.1297607421875, -0.0992431640625, 0.0838623046875, -3.00634765625, 0.4501953125, 0.0654296875, 91.680677, -146, -984, -2721
4.700614, 0.1846923828125, -0.039306640625, 0.09991455078125, -2.79931640625, 0.37451171875, 0.140625, 92.084557, -190, -1011, -2817
4.721231, 0.18890380859375, -0.016845703125, 0.09625244140625, -2.7265625, 0.36572265625, 0.16943359375, 92.488437, -199, -855, -2876
4.741848, 0.1839599609375, -0.0142822265625, 0.11865234375, -2.72216796875, 0.35791015625, 0.16748046875, 92.89231599999999, -129, -831, -2769
4.762465, 0.2208251953125, -0.02288818359375, 0.14239501953125, -2.693359375, 0.306640625, 0.15234375, 93.29619599999999, -144, -859, -2788
4.783081, 0.2645263671875, 0.011962890625, 0.1474609375, -2.50146484375, 0.251953125, 0.19287109375, 93.700075, -144, -853, -2804
4.803698, 0.29998779296875, 0.00787353515625, 0.13238525390625, -2.42138671875, 0.21435546875, 0.19189453125, 94.103955, -188, -1014, -2820
4.824315, 0.3172607421875, -0.00164794921875, 0.136474609375, -2.396484375, 0.1923828125, 0.18017578125, 94.507835, -361, -967, -3002
4.844931, 0.3414306640625, 0.0042724609375, 0.13677978515625, -2.2919921875, 0.1630859375, 0.18798828125, 94.911715, -197, -981, -2790
4.865548, 0.35711669921875, 0.010986328125, 0.1474609375, -2.20751953125, 0.14208984375, 0.1943359375, 95.315594, -195, -984, -2835
4.886165, 0.3797607421875, 0.021728515625, 0.13958740234375, -2.08349609375, 0.11669921875, 0.2099609375, 95.71947400000001, -197, -992, -2840
4.906782, 0.366943359375, 0.06390380859375, 0.083984375, -2.04443359375, 0.1396484375, 0.27685546875, 96.12335299999999, -256, -952, -2919
4.927398, 0.2476806640625, 0.12255859375, 0.0657958984375, -2.263671875, 0.28125, 0.3544921875, 96.527233, -148, -950, -2788
4.948015, 0.14947509765625, 0.130859375, 0.06085205078125, -2.4228515625, 0.390625, 0.3681640625, 96.931113, -157, -958, -2771
4.968632, 0.175048828125, 0.12451171875, 0.04132080078125, -2.3935546875, 0.373046875, 0.37158203125, 97.334992, -144, -975, -2778
4.989249, 0.07476806640625, 0.05657958984375, 0.0494384765625, -2.64892578125, 0.4873046875, 0.28857421875, 97.738872, -296, -1108, -2890
5.009865, 0.0816650390625, -0.005859375, 0.07647705078125, -2.76513671875, 0.4765625, 0.205078125, 98.142752, -190, -1056, -2790
5.030482, 0.15704345703125, -0.00469970703125, 0.10174560546875, -2.6845703125, 0.3896484375, 0.203125, 98.546631, -188, -1053, -2773
5.051099, 0.21966552734375, 0.02716064453125, 0.07916259765625, -2.5146484375, 0.33056640625, 0.2509765625, 98.95051100000001, -188, -1074, -2800
5.071715, 0.20440673828125, -0.001953125, 0.0281982421875, -2.609375, 0.375, 0.2333984375, 99.35439, -199, -1062, -2809
5.092332, 0.0982666015625, -0.053466796875, 0.037109375, -2.8427734375, 0.49609375, 0.16748046875, 99.75827, -211, -1063, -2806
5.112949, 0.09661865234375, -0.02838134765625, 0.02783203125, -2.78466796875, 0.50390625, 0.20703125, 100.16215, -218, -1072, -2813
5.133566, 0.0496826171875, -0.02392578125, 0.01983642578125, -2.80615234375, 0.55859375, 0.21923828125, 100.56603, -311, -1093, -2910
5.154182, 0.0328369140625, -0.03680419921875, 0.00787353515625, -2.83740234375, 0.587890625, 0.21044921875, 100.969909, -266, -975, -2919
5.174799, 0.01409912109375, -0.029052734375, -0.0057373046875, -2.830078125, 0.61669921875, 0.22998046875, 101.373789, -226, -914, -2903
5.195416, 0.00177001953125, -0.0399169921875, -0.02899169921875, -2.85205078125, 0.6494140625, 0.2275390625, 101.777668, -222, -916, -2879
5.216033, -0.04541015625, -0.04364013671875, -0.04388427734375, -2.87646484375, 0.7060546875, 0.23291015625, 102.181548, -226, -937, -2873
5.236649, -0.058349609375, -0.06439208984375, -0.06365966796875, -2.9111328125, 0.73876953125, 0.21484375, 102.585428, -220, -939, -2867
5.257266, -0.0819091796875, -0.06060791015625, -0.0625, -2.9091796875, 0.759765625, 0.2265625, 102.989307, -214, -929, -2865
5.277883, -0.10369873046875, -0.052734375, -0.08123779296875, -2.900390625, 0.79296875, 0.251953125, 103.393187, -211, -912, -2867
5.2985, -0.12152099609375, -0.04302978515625, -0.086181640625, -2.888671875, 0.8115234375, 0.275390625, 103.797066, -171, -863, -2805
5.319116, -0.11651611328125, -0.06298828125, -0.09576416015625, -2.91015625, 0.822265625, 0.255859375, 104.200946, -91, -883, -2643
5.339733, -0.12774658203125, -0.0682373046875, -0.09600830078125, -2.91650390625, 0.83447265625, 0.2548828125, 104.604826, -142, -891, -2758
5.36035, -0.1612548828125, -0.05938720703125, -0.08734130859375, -2.91015625, 0.85205078125, 0.27197265625, 105.008706, -142, -933, -2783
5.380966, -0.1441650390625, -0.04150390625, -0.0882568359375, -2.87646484375, 0.83935546875, 0.306640625, 105.412585, -197, -945, -2844
5.401583, -0.13983154296875, -0.05841064453125, -0.0830078125, -2.892578125, 0.83837890625, 0.2861328125, 105.816465, -188, -964, -2854
5.4222, -0.15435791015625, -0.05841064453125, -0.08905029296875, -2.89208984375, 0.85498046875, 0.29638671875, 106.220344, -182, -949, -2829
5.442817, -0.1173095703125, -0.0350341796875, -0.07879638671875, -2.84375, 0.8173828125, 0.3330078125, 106.624224, -190, -922, -2833
5.463433, -0.09906005859375, -0.04119873046875, -0.07318115234375, -2.83935546875, 0.80322265625, 0.32861328125, 107.028104, -197, -931, -2827
5.48405, -0.11212158203125, -0.04766845703125, -0.073974609375, -2.84814453125, 0.81640625, 0.32666015625, 107.431983, -184, -943, -2850
5.504667, -0.0999755859375, -0.03216552734375, -0.0633544921875, -2.81787109375, 0.79736328125, 0.3505859375, 107.835863, -169, -956, -2827
5.525284, -0.0714111328125, -0.0301513671875, -0.05615234375, -2.796875, 0.771484375, 0.3564453125, 108.239743, -188, -933, -2814
5.5459, -0.07647705078125, -0.03546142578125, -0.06414794921875, -2.80126953125, 0.78271484375, 0.35986328125, 108.643622, -186, -941, -2839
5.566517, -0.07220458984375, -0.018798828125, -0.0672607421875, -2.77197265625, 0.77734375, 0.390625, 109.047502, -161, -971, -2790
5.587134, -0.06927490234375, 0.00115966796875, -0.062744140625, -2.7392578125, 0.76611328125, 0.42138671875, 109.451381, -186, -1131, -2708
5.60775, -0.0328369140625, 0.0113525390625, -0.0440673828125, -2.7001953125, 0.72265625, 0.42919921875, 109.855261, -136, -990, -2745
5.628367, -0.028076171875, 0.0003662109375, -0.034423828125, -2.7060546875, 0.71533203125, 0.41552734375, 110.259141, -142, -1006, -2763
5.648984, -0.0107421875, -0.0111083984375, -0.03839111328125, -2.70458984375, 0.70556640625, 0.40869140625, 110.663021, -142, -984, -2706
5.669601, -0.08099365234375, -0.00750732421875, -0.05841064453125, -2.73486328125, 0.76953125, 0.43017578125, 111.0669, -159, -1012, -2759
5.690218, -0.0277099609375, -0.0318603515625, -0.04345703125, -2.73046875, 0.72412109375, 0.39501953125, 111.47078, -127, -1010, -2765
5.710834, -0.025146484375, -0.01708984375, -0.031005859375, -2.703125, 0.70751953125, 0.412109375, 111.874659, -132, -984, -2743
5.731451, -0.0191650390625, -0.02008056640625, -0.0269775390625, -2.69677734375, 0.69775390625, 0.41064453125, 112.278539, -136, -1000, -2745
5.752068, 0.01593017578125, -0.03582763671875, -0.02471923828125, -2.6884765625, 0.66845703125, 0.39404296875, 112.682419, -277, -1049, -2920
5.772684, -0.008544921875, -0.0252685546875, -0.02752685546875, -2.68359375, 0.68359375, 0.41259765625, 113.086298, -292, -982, -2958
5.793301, 0.02227783203125, 0.00177001953125, -0.0018310546875, -2.6181640625, 0.630859375, 0.43505859375, 113.490178, -209, -998, -2853
5.813918, 0.019775390625, -0.0234375, -0.01068115234375, -2.646484375, 0.6396484375, 0.4130859375, 113.894058, -203, -973, -2851
5.834534, 0.0013427734375, -0.02532958984375, -0.014404296875, -2.654296875, 0.65185546875, 0.41552734375, 114.297937, -186, -990, -2824
5.855151, 0.00103759765625, -0.0010986328125, -0.011962890625, -2.61474609375, 0.63818359375, 0.4453125, 114.701817, -190, -990, -2850
5.875768, -0.02581787109375, 0.016845703125, -0.0147705078125, -2.60400390625, 0.64990234375, 0.47021484375, 115.105696, -173, -958, -2846
5.896385, -0.02874755859375, 0.0289306640625, -0.02093505859375, -2.5830078125, 0.64501953125, 0.4892578125, 115.509576, -186, -981, -2834
5.917002, -0.02972412109375, 0.0206298828125, -0.02972412109375, -2.5859375, 0.6455078125, 0.486328125, 115.913456, -190, -988, -2825
5.937618, -0.02838134765625, 0.02838134765625, -0.0096435546875, -2.56640625, 0.623046875, 0.48388671875, 116.317335, -194, -1099, -2763
5.958235, -0.03179931640625, 0.02880859375, -0.01220703125, -2.5595703125, 0.6181640625, 0.486328125, 116.721215, -167, -926, -2809
5.978852, -0.05059814453125, 0.06640625, -0.02581787109375, -2.52099609375, 0.62060546875, 0.53564453125, 117.125095, -156, -978, -2769
5.999468, -0.05230712890625, 0.06732177734375, -0.0224609375, -2.51171875, 0.6103515625, 0.5341796875, 117.528974, -161, -1007, -2776
6.020085, -0.05694580078125, 0.0689697265625, -0.02374267578125, -2.50390625, 0.60400390625, 0.53564453125, 117.932854, -139, -988, -2767
6.040702, -0.02801513671875, 0.06085205078125, 0.00823974609375, -2.4775390625, 0.5556640625, 0.5068359375, 118.336733, -154, -989, -2775
6.061319, 0.02288818359375, 0.01617431640625, 0.023681640625, -2.47119140625, 0.501953125, 0.44970703125, 118.740613, -264, -972, -2903
6.081935, 0.03460693359375, -0.00067138671875, 0.0185546875, -2.46826171875, 0.48388671875, 0.4326171875, 119.144493, -203, -949, -2850
6.102552, 0.04248046875, -0.01165771484375, 0.0262451171875, -2.46044921875, 0.46142578125, 0.41455078125, 119.548373, -205, -930, -2879
6.123169, 0.03375244140625, -0.00128173828125, 0.030517578125, -2.4404296875, 0.45166015625, 0.42138671875, 119.952252, -216, -926, -2857
6.143786, 0.030029296875, -0.0035400390625, 0.03753662109375, -2.4326171875, 0.43798828125, 0.4130859375, 120.356132, -188, -943, -2853
6.164402, 0.02801513671875, -0.0010986328125, 0.0380859375, -2.4150390625, 0.423828125, 0.412109375, 120.760011, -186, -939, -2854
6.185019, 0.022216796875, 0.00482177734375, 0.04315185546875, -2.396484375, 0.41015625, 0.41259765625, 121.163891, -169, -935, -2836
6.205636, -0.00701904296875, 0.01080322265625, 0.04345703125, -2.40869140625, 0.42138671875, 0.41455078125, 121.567771, -186, -927, -2839
6.226252, -0.0006103515625, 0.0169677734375, 0.044189453125, -2.373046875, 0.39697265625, 0.41650390625, 121.97165, -264, -462, -2857
6.246869, -0.01934814453125, 0.0147705078125, 0.0458984375, -2.3828125, 0.3974609375, 0.40869140625, 122.37553, -268, -466, -2867
6.267486, -0.022705078125, 0.0191650390625, 0.043212890625, -2.36181640625, 0.38330078125, 0.40966796875, 122.77941, -186, -599, -2826
6.288103, -0.0391845703125, 0.02386474609375, 0.04327392578125, -2.3583984375, 0.38037109375, 0.4091796875, 123.183289, -129, -779, -2811
6.308719, -0.048583984375, 0.02655029296875, 0.041259765625, -2.34716796875, 0.37109375, 0.40673828125, 123.587169, -138, -770, -2812
6.329336, -0.064697265625, 0.0286865234375, 0.042724609375, -2.3466796875, 0.3671875, 0.40234375, 123.991048, -148, -747, -2804
6.349953, -0.07977294921875, 0.03533935546875, 0.039794921875, -2.33837890625, 0.36279296875, 0.40380859375, 124.394928, -138, -770, -2801
6.37057, -0.09625244140625, 0.04052734375, 0.04052734375, -2.33349609375, 0.3583984375, 0.40234375, 124.798808, -137, -757, -2802
6.391186, -0.1715087890625, 0.1160888671875, 0.05059814453125, -2.31884765625, 0.39599609375, 0.46630859375, 125.202688, -140, -751, -2807
6.411803, -0.2310791015625, 0.01580810546875, 0.03033447265625, -2.51318359375, 0.45703125, 0.365234375, 125.606567, -135, -772, -2813
6.43242, -0.13922119140625, 0.09381103515625, 0.06622314453125, -2.25830078125, 0.3251953125, 0.4228515625, 126.010447, -150, -992, -2768
6.453037, -0.0943603515625, 0.003173828125, 0.02728271484375, -2.28857421875, 0.28076171875, 0.3359375, 126.414326, -93, -964, -2720
6.473653, -0.09429931640625, 0.057861328125, 0.012451171875, -2.1708984375, 0.25634765625, 0.39306640625, 126.818206, -140, -994, -2735
6.49427, -0.1263427734375, 0.02838134765625, 0.0328369140625, -2.25048828125, 0.26611328125, 0.34375, 127.222086, -117, -975, -2735
6.514887, -0.10009765625, 0.02197265625, 0.031005859375, -2.16796875, 0.2158203125, 0.328125, 127.625965, -135, -977, -2743
6.535503, -0.03753662109375, 0.03790283203125, 0.03009033203125, -1.9248046875, 0.12158203125, 0.3359375, 128.029845, -133, -985, -2747
6.55612, -0.025634765625, 0.061279296875, 0.0218505859375, -1.80810546875, 0.083984375, 0.3544921875, 128.433724, -129, -977, -2764
6.576737, -0.0517578125, 0.1011962890625, 0.03240966796875, -1.80078125, 0.08740234375, 0.38232421875, 128.837604, -135, -981, -2739
6.597354, -0.070068359375, 0.09332275390625, 0.041015625, -1.8046875, 0.083984375, 0.36083984375, 129.241484, -127, -979, -2732
6.61797, -0.0517578125, 0.075439453125, 0.05780029296875, -1.6953125, 0.0400390625, 0.32568359375, 129.645363, -146, -978, -2759
6.638587, -0.0352783203125, 0.06182861328125, 0.0498046875, -1.5673828125, -0.00048828125, 0.30322265625, 130.049243, -332, -537, -2975
6.659204, -0.01934814453125, 0.05078125, 0.05413818359375, -1.4208984375, -0.041015625, 0.279296875, 130.453123, -586, -1127, -3143
6.679821, -0.0068359375, 0.04742431640625, 0.04949951171875, -1.27880859375, -0.078125, 0.26611328125, 130.857002, -525, -1246, -2938
6.700437, 0.0299072265625, 0.0233154296875, 0.0386962890625, -1.00390625, -0.14404296875, 0.23095703125, 131.260882, -191, -1061, -2742
6.721054, 0.02020263671875, 0.0362548828125, 0.02740478515625, -0.97607421875, -0.15673828125, 0.23681640625, 131.664762, -245, -1134, -2784
6.741671, 0.01617431640625, 0.0474853515625, 0.0479736328125, -0.92822265625, -0.169921875, 0.232421875, 132.068641, -289, -1192, -2811
6.762287, 0.0220947265625, 0.0284423828125, 0.043701171875, -0.77685546875, -0.19873046875, 0.2001953125, 132.472521, -329, -1224, -2825
6.782904, 0.06048583984375, -0.01019287109375, 0.02276611328125, -0.490234375, -0.2685546875, 0.14794921875, 132.876401, -315, -1219, -2815
6.803521, 0.07830810546875, -0.03424072265625, 0.0238037109375, -0.3232421875, -0.30810546875, 0.10693359375, 133.28028, -302, -1192, -2823
6.824137, 0.0726318359375, -0.03924560546875, 0.0341796875, -0.259765625, -0.3173828125, 0.087890625, 133.68416, -311, -1207, -2830
6.844755, 0.0721435546875, -0.05072021484375, 0.0306396484375, -0.17529296875, -0.3359375, 0.06201171875, 134.088039, -306, -1199, -2809
6.865371, 0.08673095703125, -0.0455322265625, 0.01275634765625, -0.14306640625, -0.375, 0.05712890625, 134.491919, -298, -1175, -2804
6.885988, 0.10797119140625, -0.04852294921875, -0.00274658203125, -0.09228515625, -0.41943359375, 0.04150390625, 134.895799, -328, -1195, -2791
6.906605, 0.093994140625, -0.03082275390625, 0.0013427734375, -0.111328125, -0.41845703125, 0.0498046875, 135.299678, -285, -1174, -2798
6.927221, 0.0731201171875, -0.02471923828125, -0.00103759765625, -0.10107421875, -0.41259765625, 0.044921875, 135.703558, -190, -821, -2839
6.947838, 0.09075927734375, -0.0191650390625, -0.01580810546875, -0.08056640625, -0.45068359375, 0.03955078125, 136.107438, -171, -785, -2820
6.968455, 0.1046142578125, -0.0118408203125, -0.04449462890625, -0.068359375, -0.49169921875, 0.037109375, 136.511317, -199, -595, -2838
6.989071, 0.125, -0.018798828125, -0.0648193359375, -0.02490234375, -0.53515625, 0.01513671875, 136.915197, -338, -603, -2969
7.009688, 0.12005615234375, -0.0093994140625, -0.06927490234375, -0.02294921875, -0.5439453125, 0.01416015625, 137.319077, -292, -661, -2948
7.030305, 0.12109375, -0.009033203125, -0.0657958984375, -0.001953125, -0.552734375, 0.00146484375, 137.722956, -268, -680, -2926
7.050922, 0.10235595703125, -0.00152587890625, -0.065673828125, 0.0029296875, -0.5439453125, -0.0009765625, 138.126836, -235, -682, -2897
7.071538, 0.01751708984375, 0.01153564453125, -0.0660400390625, -0.0048828125, -0.4677734375, 0.0029296875, 138.530716, -243, -667, -2913
7.092155, 0.01959228515625, -0.01983642578125, -0.0394287109375, 0.09814453125, -0.4638671875, -0.048828125, 138.934595, -249, -657, -2890
7.112772, 0.03802490234375, -0.01971435546875, -0.04083251953125, 0.11376953125, -0.48974609375, -0.060546875, 139.338475, -247, -671, -2897
7.133389, 0.06878662109375, -0.04034423828125, -0.045654296875, 0.16845703125, -0.52685546875, -0.0986328125, 139.742354, -213, -675, -2900
7.154005, 0.05462646484375, -0.0350341796875, -0.05096435546875, 0.17919921875, -0.52099609375, -0.103515625, 140.146234, -138, -1030, -2723
7.174622, 0.04815673828125, -0.0313720703125, -0.052978515625, 0.19091796875, -0.52001953125, -0.1103515625, 140.550113, -190, -975, -2838
7.195239, 0.06402587890625, -0.03729248046875, -0.05731201171875, 0.21240234375, -0.5400390625, -0.12939453125, 140.953993, -140, -584, -2747
7.215855, 0.06878662109375, -0.02606201171875, -0.06451416015625, 0.20263671875, -0.55126953125, -0.12646484375, 141.357873, -215, -519, -2816
7.236472, 0.04742431640625, -0.01318359375, -0.057861328125, 0.20068359375, -0.529296875, -0.11865234375, 141.761753, -285, -453, -2848
7.257089, 0.0369873046875, -0.01336669921875, -0.04962158203125, 0.22119140625, -0.5146484375, -0.12744140625, 142.165632, -314, -529, -2915
7.277706, 0.03375244140625, -0.026123046875, -0.04559326171875, 0.265625, -0.5078125, -0.1513671875, 142.569512, -294, -526, -2910
7.298322, 0.07012939453125, -0.0318603515625, -0.06494140625, 0.271484375, -0.55078125, -0.17138671875, 142.973391, -307, -501, -2894
7.318939, 0.0733642578125, -0.02783203125, -0.076171875, 0.27587890625, -0.55810546875, -0.17724609375, 143.377271, -290, -533, -2892
7.339556, 0.0660400390625, -0.03009033203125, -0.07586669921875, 0.29833984375, -0.54736328125, -0.18798828125, 143.781151, -285, -511, -2932
7.360173, 0.05474853515625, -0.02532958984375, -0.07275390625, 0.3095703125, -0.53076171875, -0.18896484375, 144.185031, -481, -427, -3001
7.380789, 0.03436279296875, -0.0361328125, -0.06097412109375, 0.36083984375, -0.498046875, -0.20654296875, 144.58891, -382, -437, -2944
7.401406, 0.00921630859375, -0.044189453125, -0.05865478515625, 0.41455078125, -0.46435546875, -0.22216796875, 144.99279, -418, -443, -2995
7.422023, -0.00848388671875, -0.05780029296875, -0.04010009765625, 0.47900390625, -0.4287109375, -0.2392578125, 145.396669, -422, -410, -2967
7.44264, -0.023193359375, -0.0758056640625, -0.028564453125, 0.55322265625, -0.3984375, -0.2626953125, 145.800549, -429, -384, -2946
7.463256, -0.0335693359375, -0.08905029296875, -0.01971435546875, 0.61474609375, -0.373046875, -0.27978515625, 146.204428, -408, -429, -2970
7.483873, -0.04278564453125, -0.0882568359375, -0.01556396484375, 0.6484375, -0.35205078125, -0.28173828125, 146.608308, -435, -401, -2953
7.50449, -0.021728515625, -0.0863037109375, -0.017578125, 0.634765625, -0.36376953125, -0.2841796875, 147.012188, -403, -443, -2954
7.525106, 0.02093505859375, -0.07989501953125, -0.01507568359375, 0.58349609375, -0.39599609375, -0.279296875, 147.416068, -428, -441, -2947
7.545723, 0.0477294921875, -0.063720703125, -0.0194091796875, 0.537109375, -0.41455078125, -0.26513671875, 147.819947, -645, -415, -3049
7.56634, 0.043701171875, -0.03857421875, -0.012939453125, 0.5087890625, -0.3974609375, -0.236328125, 148.223827, -182, -751, -2844
7.586957, 0.0299072265625, -0.0306396484375, -0.00482177734375, 0.52978515625, -0.36669921875, -0.2265625, 148.627706, -159, -858, -2813
7.607573, 0.026611328125, -0.04547119140625, -0.00543212890625, 0.5927734375, -0.34716796875, -0.24609375, 149.031586, -64, -935, -2595
7.62819, 0.01043701171875, -0.081298828125, -0.00311279296875, 0.7255859375, -0.3095703125, -0.28759765625, 149.435466, -146, -952, -2774
7.648807, 0.0062255859375, -0.12359619140625, 0.01861572265625, 0.84619140625, -0.27734375, -0.32763671875, 149.839346, -310, -981, -2972
7.669424, 0.007568359375, -0.129638671875, 0.0155029296875, 0.88818359375, -0.26171875, -0.3359375, 150.243225, -321, -783, -2999
7.69004, 0.04248046875, -0.11712646484375, 0.02117919921875, 0.82958984375, -0.2802734375, -0.3203125, 150.647105, -195, -528, -2792
7.710657, 0.0654296875, -0.09161376953125, 0.01788330078125, 0.76953125, -0.28955078125, -0.29296875, 151.050984, -211, -591, -2841
7.731274, 0.0797119140625, -0.05499267578125, 0.019287109375, 0.69580078125, -0.2880859375, -0.25, 151.454864, -207, -621, -2882
7.75189, 0.0521240234375, -0.00286865234375, 0.01422119140625, 0.65234375, -0.24169921875, -0.189453125, 151.858743, -190, -597, -2835
7.772507, 0.05096435546875, 0.0350341796875, 0.0360107421875, 0.564453125, -0.21484375, -0.13818359375, 152.262623, -230, -581, -2849
7.793124, 0.05340576171875, 0.07586669921875, 0.04144287109375, 0.41552734375, -0.19482421875, -0.0869140625, 152.666503, -393, -490, -2979
7.813741, 0.07037353515625, 0.11602783203125, 0.08843994140625, 0.1845703125, -0.181640625, -0.0341796875, 153.070382, -380, -534, -2968
7.834358, 0.09930419921875, 0.130126953125, 0.07244873046875, 0.07666015625, -0.1943359375, -0.0146484375, 153.474262, -353, -475, -2946
7.854974, 0.1361083984375, 0.12762451171875, 0.09576416015625, 0.0654296875, -0.2060546875, -0.01318359375, 153.878142, -357, -496, -2962
7.875591, 0.14227294921875, 0.0712890625, 0.1138916015625, 0.36376953125, -0.185546875, -0.0712890625, 154.282021, -368, -514, -2965
7.896208, 0.11822509765625, 0.0704345703125, 0.1419677734375, 0.4609375, -0.1318359375, -0.06591796875, 154.685901, -360, -512, -2969
7.916824, 0.1212158203125, 0.0537109375, 0.13458251953125, 0.61669921875, -0.1123046875, -0.080078125, 155.089781, -372, -501, -2968
7.937441, 0.1209716796875, 0.033935546875, 0.12908935546875, 0.8310546875, -0.08837890625, -0.09716796875, 155.49366, -359, -484, -2973
7.958058, 0.099365234375, 0.03515625, 0.1153564453125, 1.1552734375, -0.0400390625, -0.091796875, 155.89754, -344, -528, -2939
7.978674, 0.0699462890625, 0.04595947265625, 0.09576416015625, 1.80908203125, 0.0185546875, -0.076171875, 156.30142, -106, -775, -2738
7.999291, 0.0611572265625, 0.04339599609375, 0.08978271484375, 2.220703125, 0.05615234375, -0.0732421875, 156.705299, -416, -521, -3010
8.019907999999999, 0.00238037109375, 0.06036376953125, 0.0743408203125, 2.83935546875, 0.15380859375, -0.0478515625, 157.109179, -549, -562, -3107
8.040525000000001, -0.05743408203125, 0.060546875, 0.0592041015625, 2.98193359375, 0.25439453125, -0.04150390625, 157.513058, -614, -557, -3152
8.061142, -0.0968017578125, 0.06365966796875, 0.048095703125, 3.05126953125, 0.33056640625, -0.03076171875, 157.916938, -566, -589, -3113
8.081758000000001, -0.12579345703125, 0.042724609375, 0.0462646484375, 3.02197265625, 0.3896484375, -0.048828125, 158.320818, -559, -570, -3122
8.102375, -0.1689453125, 0.04644775390625, 0.02716064453125, 3.06787109375, 0.47021484375, -0.037109375, 158.724697, -610, -593, -3146
8.122992, -0.18743896484375, 0.04437255859375, 0.009521484375, 3.0859375, 0.52392578125, -0.03173828125, 159.128577, -593, -591, -3147
8.143608, -0.1768798828125, -0.01348876953125, 0.0101318359375, 2.9755859375, 0.5361328125, -0.099609375, 159.532457, -606, -610, -3161
8.164225, -0.18157958984375, -0.00946044921875, -0.00506591796875, 3.0078125, 0.5751953125, -0.0869140625, 159.936336, -391, -285, -2875
8.184842, -0.17498779296875, 0.03729248046875, -0.039306640625, 3.12109375, 0.6171875, -0.01416015625, 160.340216, -110, -804, -2819
8.205458, -0.1915283203125, 0.05413818359375, -0.05352783203125, -3.1142578125, 0.66650390625, 0.02099609375, 160.744096, -551, -1153, -2993
8.226075, -0.22467041015625, 0.0284423828125, -0.0694580078125, 3.134765625, 0.72998046875, -0.005859375, 161.147975, -778, -886, -3091
8.246691999999999, -0.219482421875, 0.05523681640625, -0.0648193359375, -3.0908203125, 0.74267578125, 0.04638671875, 161.551855, -747, -620, -3098
8.267308999999999, -0.22723388671875, 0.0811767578125, -0.08721923828125, -3.04052734375, 0.78515625, 0.10107421875, 161.955735, -778, -591, -3096
8.287926000000001, -0.23028564453125, 0.04541015625, -0.0888671875, -3.08642578125, 0.810546875, 0.0576171875, 162.359614, -989, -705, -3088
8.308541999999999, -0.21343994140625, 0.02398681640625, -0.08062744140625, -3.10693359375, 0.810546875, 0.03564453125, 162.763494, -1040, -764, -3083
8.329159000000001, -0.2205810546875, 0.0045166015625, -0.08172607421875, -3.12548828125, 0.83544921875, 0.017578125, 163.167373, -1040, -802, -3070
8.349776, -0.20635986328125, -0.014892578125, -0.07318115234375, 3.140625, 0.8359375, -0.00048828125, 163.571253, -1063, -785, -3066
8.370392000000001, -0.1658935546875, -0.00946044921875, -0.081298828125, -3.1220703125, 0.83056640625, 0.0205078125, 163.975133, -1084, -854, -3054
8.391009, -0.1746826171875, 0.00140380859375, -0.08245849609375, -3.09619140625, 0.8544921875, 0.0517578125, 164.379012, -1084, -848, -3067
8.411626, -0.163818359375, -0.0023193359375, -0.07769775390625, -3.0908203125, 0.85888671875, 0.05859375, 164.782892, -1084, -846, -3072
8.432243, -0.17547607421875, -0.0015869140625, -0.077392578125, -3.0810546875, 0.8818359375, 0.07275390625, 165.186771, -1083, -851, -3063
8.452859, -0.15618896484375, -0.0230712890625, -0.08172607421875, -3.099609375, 0.88818359375, 0.05126953125, 165.590651, -1289, -1084, -2798
8.473476, -0.150634765625, -0.03631591796875, -0.07171630859375, -3.107421875, 0.890625, 0.0419921875, 165.994531, -1296, -852, -2919
8.494092999999999, -0.13616943359375, -0.02618408203125, -0.06488037109375, -3.08349609375, 0.888671875, 0.0712890625, 166.398411, -821, -623, -3111
8.514709999999999, -0.1185302734375, -0.019775390625, -0.06585693359375, -3.064453125, 0.890625, 0.0947265625, 166.80229, -1010, -591, -3074
8.535326, -0.09576416015625, -0.0216064453125, -0.0406494140625, -3.05615234375, 0.8681640625, 0.10107421875, 167.20617, -1078, -586, -3067
8.555942999999999, -0.050048828125, -0.02056884765625, -0.01678466796875, -3.0400390625, 0.83056640625, 0.11083984375, 167.610049, -858, -708, -3106
8.576560000000001, -0.0218505859375, -0.0179443359375, -0.0267333984375, -3.02392578125, 0.830078125, 0.12939453125, 168.013929, -865, -625, -3118
8.597175999999999, 0.00750732421875, -0.02490234375, -0.01568603515625, -3.0205078125, 0.81201171875, 0.1279296875, 168.417809, -886, -673, -3132
8.617793000000001, 0.0283203125, -0.0303955078125, -0.00927734375, -3.0166015625, 0.8037109375, 0.13037109375, 168.821688, -897, -715, -3122
8.63841, 0.04779052734375, -0.0301513671875, 0.0076904296875, -3.00439453125, 0.787109375, 0.138671875, 169.225568, -939, -652, -3104
8.659027, 0.04364013671875, -0.01904296875, 0.017822265625, -2.9814453125, 0.791015625, 0.1640625, 169.629448, -536, -547, -3053
8.679643, 0.05810546875, -0.01202392578125, 0.04278564453125, -2.96044921875, 0.77099609375, 0.17822265625, 170.033327, -855, -578, -3100
8.70026, 0.11273193359375, 0.00250244140625, 0.050537109375, -2.91552734375, 0.73046875, 0.20654296875, 170.437207, -988, -726, -3100
8.720877, 0.1671142578125, 0.0030517578125, 0.0595703125, -2.8876953125, 0.68798828125, 0.21484375, 170.841086, -998, -775, -3109
8.741493999999999, 0.19244384765625, 0.005126953125, 0.0634765625, -2.86669921875, 0.671875, 0.22607421875, 171.244966, -994, -781, -3096
8.76211, 0.20458984375, 0.00152587890625, 0.07061767578125, -2.8603515625, 0.66455078125, 0.2275390625, 171.648846, -1002, -766, -3130
8.782727, 0.2005615234375, 0.00469970703125, 0.08575439453125, -2.85107421875, 0.6640625, 0.23583984375, 172.052726, -901, -760, -3134
8.803343999999999, 0.2010498046875, -0.00360107421875, 0.09686279296875, -2.85791015625, 0.66357421875, 0.2294921875, 172.456605, -943, -774, -3118
8.823961000000001, 0.20782470703125, -0.0164794921875, 0.10235595703125, -2.869140625, 0.66162109375, 0.21875, 172.860485, -930, -803, -3124
8.844576999999999, 0.22137451171875, -0.02178955078125, 0.10272216796875, -2.865234375, 0.65478515625, 0.21923828125, 173.264364, -920, -808, -3123
8.865194000000001, 0.23712158203125, -0.02423095703125, 0.10662841796875, -2.85546875, 0.64306640625, 0.22216796875, 173.668244, -889, -806, -3135
8.885811, 0.2349853515625, -0.01922607421875, 0.10968017578125, -2.841796875, 0.6455078125, 0.234375, 174.072124, -883, -693, -3119
8.906427000000001, 0.2283935546875, -0.0213623046875, 0.1083984375, -2.8427734375, 0.654296875, 0.23828125, 174.476003, -699, -608, -3123
8.927044, 0.2420654296875, -0.02203369140625, 0.112548828125, -2.83056640625, 0.6416015625, 0.2421875, 174.879883, -709, -625, -3135
8.947661, 0.2567138671875, -0.01092529296875, 0.1180419921875, -2.79833984375, 0.625, 0.26025390625, 175.283763, -791, -642, -3122
8.968278, 0.260009765625, -0.0155029296875, 0.11212158203125, -2.7978515625, 0.62646484375, 0.26171875, 175.687642, -758, -644, -3126
8.988894, 0.2557373046875, -0.01080322265625, 0.12127685546875, -2.78662109375, 0.623046875, 0.26904296875, 176.091522, -760, -646, -3118
9.009511, 0.20501708984375, 0.02239990234375, 0.10198974609375, -2.759765625, 0.669921875, 0.3232421875, 176.495401, -800, -659, -3116
9.030127999999999, 0.21417236328125, 0.04595947265625, 0.06207275390625, -2.71484375, 0.6796875, 0.37548828125, 176.899281, -979, -838, -3094
9.050744999999999, 0.167236328125, 0.04254150390625, 0.034912109375, -2.74267578125, 0.73291015625, 0.388671875, 177.30316, -1072, -981, -2996
9.071361, 0.1434326171875, 0.03485107421875, 0.01959228515625, -2.7607421875, 0.76025390625, 0.39013671875, 177.70704, -1088, -1013, -3023
9.091977999999999, 0.12701416015625, -0.00262451171875, 0.0164794921875, -2.814453125, 0.78076171875, 0.34228515625, 178.11092, -1074, -983, -3026
9.112595000000001, 0.0775146484375, -0.009521484375, -0.016845703125, -2.84033203125, 0.83837890625, 0.35205078125, 178.5148, -1082, -1006, -3009
9.133210999999999, 0.04254150390625, -0.0819091796875, -0.0379638671875, -2.9423828125, 0.89111328125, 0.251953125, 178.918679, -1102, -1010, -3010
9.153828000000001, 0.0264892578125, -0.07550048828125, -0.05621337890625, -2.93505859375, 0.9091796875, 0.27197265625, 179.322559, -1074, -1011, -3041
9.174445, 0.01190185546875, -0.053955078125, -0.07598876953125, -2.908203125, 0.92333984375, 0.3193359375, 179.726438, -1053, -1009, -3014
9.195062, -0.01043701171875, -0.04266357421875, -0.08721923828125, -2.8974609375, 0.93701171875, 0.3447265625, 180.130318, -1077, -1026, -3003
9.215678, -0.0498046875, -0.037841796875, -0.110595703125, -2.900390625, 0.97119140625, 0.3671875, 180.534198, -1052, -1018, -3028
9.236295, -0.057861328125, -0.01861572265625, -0.12579345703125, -2.87744140625, 0.974609375, 0.40966796875, 180.938077, -492, -570, -3013
9.256912, -0.0621337890625, -0.01153564453125, -0.12835693359375, -2.8671875, 0.96923828125, 0.42138671875, 181.341957, -553, -587, -3065
9.277528999999999, -0.07745361328125, -0.04132080078125, -0.12225341796875, -2.904296875, 0.97509765625, 0.36376953125, 181.745837, -629, -549, -3098
9.298145, -0.0933837890625, -0.013916015625, -0.14532470703125, -2.87451171875, 0.98486328125, 0.42431640625, 182.149716, -996, -578, -3139
9.318762, -0.11492919921875, 0.00897216796875, -0.133544921875, -2.8525390625, 0.97119140625, 0.44970703125, 182.553596, -1167, -456, -3030
9.339378999999999, -0.09197998046875, -0.00750732421875, -0.112060546875, -2.86083984375, 0.9375, 0.40234375, 182.957476, -1093, -376, -3026
9.359995, -0.11285400390625, -0.01849365234375, -0.10174560546875, -2.87841796875, 0.935546875, 0.373046875, 183.361355, -1057, -355, -3010
9.380611999999999, -0.1280517578125, -0.02001953125, -0.10784912109375, -2.88330078125, 0.939453125, 0.369140625, 183.765235, -1114, -382, -3007
9.401229000000001, -0.15716552734375, -0.0078125, -0.1241455078125, -2.8759765625, 0.95458984375, 0.39404296875, 184.169115, -1140, -372, -3018
9.421846, -0.18157958984375, 0.01220703125, -0.11712646484375, -2.8583984375, 0.9462890625, 0.4150390625, 184.572994, -1174, -418, -2983
9.442462000000001, -0.18878173828125, 0.0230712890625, -0.1104736328125, -2.84619140625, 0.9306640625, 0.419921875, 184.976874, -1314, -798, -2973
9.463079, -0.13470458984375, 0.03936767578125, -0.0689697265625, -2.80322265625, 0.8486328125, 0.41015625, 185.380753, -1316, -936, -2955
9.483696, -0.12164306640625, 0.006591796875, -0.057373046875, -2.83642578125, 0.82666015625, 0.34912109375, 185.784633, -635, -861, -3170
9.504313, -0.17352294921875, 0.02069091796875, -0.08404541015625, -2.83642578125, 0.8642578125, 0.376953125, 186.188513, -691, -897, -3196
9.524929, -0.2042236328125, 0.0352783203125, -0.08526611328125, -2.82861328125, 0.8671875, 0.39111328125, 186.592392, -992, -1030, -3116
9.545546, -0.185546875, 0.039794921875, -0.05511474609375, -2.8125, 0.8173828125, 0.3720703125, 186.996272, -657, -1169, -3111
9.566163, -0.1636962890625, 0.0465087890625, -0.052001953125, -2.791015625, 0.7822265625, 0.37109375, 187.400152, -1026, -1209, -3030
9.586779999999999, -0.13763427734375, 0.04315185546875, -0.03961181640625, -2.77880859375, 0.73779296875, 0.3515625, 187.804031, -950, -1218, -3062
9.607396, -0.14794921875, 0.053466796875, -0.02276611328125, -2.76611328125, 0.71484375, 0.3486328125, 188.207911, -754, -1216, -3063
9.628012999999999, -0.1829833984375, 0.0457763671875, -0.01641845703125, -2.79150390625, 0.72265625, 0.3271484375, 188.611791, -916, -1146, -3077
9.648630000000001, -0.18438720703125, 0.06097412109375, 0.00433349609375, -2.767578125, 0.689453125, 0.32861328125, 189.01567, -846, -1123, -3108
9.669245999999999, -0.19427490234375, 0.08892822265625, 0.0177001953125, -2.72998046875, 0.6650390625, 0.34912109375, 189.41955, -798, -1165, -3087
9.689863000000001, -0.16357421875, 0.09271240234375, 0.0286865234375, -2.69921875, 0.6142578125, 0.34033203125, 189.823429, -1097, -1154, -2981
9.71048, -0.11041259765625, 0.0743408203125, 0.03680419921875, -2.6806640625, 0.54638671875, 0.30615234375, 190.227309, -222, -513, -2873
9.731097, -0.10931396484375, 0.0743408203125, 0.03509521484375, -2.671875, 0.525390625, 0.29833984375, 190.631189, -121, -985, -2804
9.751713000000001, -0.14385986328125, 0.09478759765625, 0.03411865234375, -2.6591796875, 0.53369140625, 0.31396484375, 191.035068, -620, -1110, -3021
9.77233, -0.1248779296875, 0.067138671875, 0.05438232421875, -2.6826171875, 0.4892578125, 0.265625, 191.438948, -588, -1005, -3041
9.792947, -0.07635498046875, 0.06573486328125, 0.0450439453125, -2.6259765625, 0.423828125, 0.25830078125, 191.842828, -692, -766, -3120
9.813564, -0.01416015625, 0.03009033203125, 0.0655517578125, -2.61181640625, 0.33056640625, 0.2021484375, 192.246707, -749, -749, -3109
9.83418, 0.070068359375, -0.01806640625, 0.04913330078125, -2.58349609375, 0.2197265625, 0.1396484375, 192.650587, -837, -632, -3120
9.854797, 0.056640625, -0.00762939453125, 0.034912109375, -2.54833984375, 0.2138671875, 0.14697265625, 193.054467, -1052, -701, -3093
9.875413999999999, -0.00384521484375, -0.01251220703125, 0.05059814453125, -2.6796875, 0.25537109375, 0.1298828125, 193.458346, -973, -732, -3086
9.89603, -0.00848388671875, -0.01812744140625, 0.05621337890625, -2.6962890625, 0.23486328125, 0.1142578125, 193.862226, -1011, -749, -3072
9.916646999999999, 0.02679443359375, -0.02752685546875, 0.0684814453125, -2.63720703125, 0.1689453125, 0.09423828125, 194.266106, -1021, -751, -3074
9.937264000000001, 0.072265625, -0.03741455078125, 0.069091796875, -2.4658203125, 0.09326171875, 0.0751953125, 194.669985, -954, -753, -3109
9.957881, 0.04949951171875, -0.00872802734375, 0.05718994140625, -2.3369140625, 0.09765625, 0.10205078125, 195.073865, -992, -787, -3081
9.978498, -0.0128173828125, 0.02130126953125, 0.05322265625, -2.42333984375, 0.1474609375, 0.1298828125, 195.477744, -1004, -787, -3072
9.999114000000001, 0.009521484375, 0.0255126953125, 0.06097412109375, -2.23828125, 0.09912109375, 0.1259765625, 195.881624, -954, -768, -3072
10.019731, 0.05133056640625, 0.015625, 0.06109619140625, -1.84423828125, 0.0302734375, 0.107421875, 196.285504, -991, -797, -3107
10.040348, 0.1094970703125, 0.023193359375, 0.056884765625, -1.091796875, -0.05615234375, 0.109375, 196.689383, -990, -799, -3091
10.060964, 0.094482421875, 0.01690673828125, 0.0289306640625, -1.01416015625, -0.060546875, 0.09814453125, 197.093263, -963, -788, -3080
10.081581, -0.01983642578125, 0.01800537109375, 0.03009033203125, -2.09521484375, 0.05322265625, 0.09228515625, 197.497143, -972, -795, -3099
10.102198, -0.03155517578125, -0.01312255859375, 0.0740966796875, -2.341796875, 0.04541015625, 0.046875, 197.901022, -970, -784, -3082
10.122814, -0.03692626953125, -0.0023193359375, 0.06072998046875, -2.142578125, 0.03466796875, 0.0537109375, 198.304902, -954, -809, -3098
10.143431, -0.0213623046875, -0.00457763671875, 0.0751953125, -1.57470703125, 0, 0.04443359375, 198.708782, -973, -830, -3091
10.164048, -0.00213623046875, 0.0078125, 0.0543212890625, -0.95751953125, -0.037109375, 0.05322265625, 199.112661, -949, -808, -3093
10.184665, 0.03704833984375, 0.01654052734375, 0.05560302734375, -0.5361328125, -0.09521484375, 0.05712890625, 199.516541, -945, -825, -3089
10.205282, 0.03143310546875, 0.02447509765625, 0.0340576171875, -0.5263671875, -0.10546875, 0.06201171875, 199.92042, -966, -804, -3070
10.225898, 0.02154541015625, 0.02825927734375, 0.0299072265625, -0.50830078125, -0.10888671875, 0.06103515625, 200.3243, -956, -808, -3071
10.246515, -0.01397705078125, 0.02313232421875, 0.04754638671875, -0.5478515625, -0.080078125, 0.04931640625, 200.72818, -964, -823, -3078
10.267132, 0.01654052734375, 0.005126953125, 0.02606201171875, -0.19384765625, -0.12841796875, 0.025390625, 201.132059, -964, -827, -3086
10.287748, 0.04522705078125, -0.01898193359375, 0.0379638671875, 0.03662109375, -0.16845703125, -0.005859375, 201.535939, -949, -810, -3101
10.308365, 0.03009033203125, -0.02691650390625, 0.01043701171875, 0.1162109375, -0.1669921875, -0.01904296875, 201.939818, -943, -823, -3114
10.328982, 0.037841796875, -0.05084228515625, 0.03057861328125, 0.265625, -0.18017578125, -0.04931640625, 202.343698, -964, -812, -3101
10.349598, -0.0306396484375, -0.03790283203125, -0.02313232421875, 0.32568359375, -0.12060546875, -0.04052734375, 202.747578, -946, -822, -3101
10.370215, 0.0196533203125, -0.047607421875, 0.0030517578125, 0.2880859375, -0.1806640625, -0.0537109375, 203.151458, -959, -826, -3080
10.390832, 0.05670166015625, -0.0472412109375, -0.00555419921875, 0.240234375, -0.2294921875, -0.05712890625, 203.555337, -940, -832, -3081
10.411449, 0.05426025390625, -0.0589599609375, -0.00958251953125, 0.30126953125, -0.23291015625, -0.0732421875, 203.959217, -939, -854, -3116
10.432066, 0.047119140625, -0.08465576171875, 0.015625, 0.4248046875, -0.22265625, -0.10205078125, 204.363096, -951, -841, -3116
10.452682, 0.0723876953125, -0.0885009765625, -0.00018310546875, 0.39892578125, -0.25634765625, -0.1103515625, 204.766976, -947, -850, -3096
10.473299, 0.15313720703125, -0.0860595703125, -0.02294921875, 0.2978515625, -0.3505859375, -0.1123046875, 205.170856, -951, -854, -3099
10.493916, 0.16510009765625, -0.07745361328125, -0.04510498046875, 0.26611328125, -0.373046875, -0.1064453125, 205.574735, -942, -847, -3090
10.514532, 0.13787841796875, -0.07208251953125, -0.046875, 0.27490234375, -0.34619140625, -0.1015625, 205.978615, -941, -840, -3069
10.535149, 0.12109375, -0.06793212890625, -0.02386474609375, 0.27978515625, -0.31982421875, -0.0947265625, 206.382495, -954, -848, -3085
10.555766, 0.13006591796875, -0.07342529296875, -0.0166015625, 0.29150390625, -0.3251953125, -0.10107421875, 206.786374, -941, -844, -3108
10.576383, 0.16162109375, -0.070068359375, -0.03656005859375, 0.2568359375, -0.36328125, -0.099609375, 207.190254, -930, -827, -3089
10.596999, 0.16259765625, -0.07012939453125, -0.04150390625, 0.25830078125, -0.36376953125, -0.10009765625, 207.594133, -937, -857, -3092
10.617616, 0.16845703125, -0.06640625, -0.040283203125, 0.24462890625, -0.36572265625, -0.09521484375, 207.998013, -949, -846, -3086
10.638233, 0.1993408203125, -0.0567626953125, -0.03118896484375, 0.19873046875, -0.3896484375, -0.08251953125, 208.401893, -966, -836, -3079
10.65885, 0.21044921875, -0.0390625, -0.04681396484375, 0.14453125, -0.40283203125, -0.0615234375, 208.805773, -951, -858, -3112
10.679466, 0.197509765625, -0.03106689453125, -0.04156494140625, 0.1259765625, -0.3818359375, -0.05029296875, 209.209652, -938, -864, -3108
10.700083, 0.18328857421875, -0.004638671875, -0.0362548828125, 0.04638671875, -0.3583984375, -0.01708984375, 209.613532, -938, -862, -3113
10.7207, 0.185302734375, -0.01531982421875, -0.0157470703125, 0.076171875, -0.34521484375, -0.02685546875, 210.017411, -935, -836, -3113
10.741316, 0.20361328125, -0.00457763671875, -0.01702880859375, 0.03369140625, -0.35595703125, -0.01220703125, 210.421291, -933, -859, -3135
10.761933, 0.21490478515625, -0.00146484375, -0.01495361328125, 0.0166015625, -0.35791015625, -0.005859375, 210.825171, -945, -863, -3098
10.78255, 0.216064453125, 0.01019287109375, -0.02703857421875, -0.02783203125, -0.3544921875, 0.01025390625, 211.22905, -938, -857, -3112
10.803167, 0.2314453125, 0.01025390625, -0.019287109375, -0.03662109375, -0.35693359375, 0.013671875, 211.63293, -954, -847, -3106
10.823783, 0.21240234375, 0.0135498046875, -0.0201416015625, -0.06201171875, -0.326171875, 0.021484375, 212.036809, -958, -857, -3089
10.8444, 0.1480712890625, 0.03350830078125, -0.03179931640625, -0.19384765625, -0.24609375, 0.0498046875, 212.440689, -935, -863, -3088
10.865017, 0.04278564453125, 0.0452880859375, -0.04296875, -0.5576171875, -0.10986328125, 0.0693359375, 212.844569, -954, -842, -3095
10.885634, -0.01470947265625, 0.043212890625, -0.02618408203125, -1.2490234375, -0.02294921875, 0.06982421875, 213.248448, -949, -829, -3085
10.90625, -0.03839111328125, 0.02349853515625, 0.020263671875, -1.984375, 0.02099609375, 0.0478515625, 213.652328, -956, -859, -3104
10.926867, -0.00927734375, -0.00091552734375, 0.0313720703125, -1.74072265625, 0.00439453125, 0.0244140625, 214.056208, -960, -850, -3095
10.947484, 0.04046630859375, 0.00543212890625, 0.0548095703125, -0.79443359375, -0.0341796875, 0.03564453125, 214.460087, -954, -842, -3098
10.968101, 0.07757568359375, -0.0159912109375, 0.07891845703125, -0.2685546875, -0.05712890625, 0.01611328125, 214.863967, -964, -861, -3085
10.988717, 0.07122802734375, -0.01287841796875, 0.08294677734375, -0.62158203125, -0.033203125, 0.0244140625, 215.267847, -943, -812, -3116
11.009334, 0.0179443359375, -0.01531982421875, 0.06524658203125, -2.5751953125, 0.04248046875, 0.02734375, 215.671726, -945, -841, -3096
11.029951, -0.0123291015625, -0.02392578125, 0.06890869140625, -2.9052734375, 0.0947265625, 0.02294921875, 216.075606, -949, -859, -3096
11.050567, -0.0399169921875, -0.03155517578125, 0.0640869140625, -3.00537109375, 0.14453125, 0.02001953125, 216.479486, -944, -847, -3096
11.071184, -0.08111572265625, -0.0308837890625, 0.053955078125, -3.017578125, 0.21142578125, 0.02685546875, 216.883365, -946, -841, -3104
11.091801, -0.09112548828125, -0.04681396484375, 0.04522705078125, -3.08349609375, 0.24462890625, 0.01416015625, 217.287245, -942, -837, -3112
11.112418, -0.113525390625, -0.03948974609375, 0.03521728515625, -3.0439453125, 0.2919921875, 0.029296875, 217.691124, -954, -857, -3100
11.133034, -0.1361083984375, -0.05419921875, 0.03790283203125, -3.08935546875, 0.33544921875, 0.01806640625, 218.095004, -1247, -935, -2912
11.153651, -0.16302490234375, -0.05712890625, 0.0347900390625, -3.08935546875, 0.384765625, 0.02099609375, 218.498884, -1310, -1148, -2704
11.174268, -0.18548583984375, -0.0423583984375, 0.0220947265625, -3.04248046875, 0.4326171875, 0.0458984375, 218.902763, -1178, -1211, -2826
11.194885, -0.19268798828125, -0.01885986328125, 0.013671875, -2.978515625, 0.462890625, 0.08203125, 219.306643, -695, -716, -3113
11.215501, -0.17486572265625, -0.0032958984375, -0.00225830078125, -2.9287109375, 0.47216796875, 0.1103515625, 219.710523, -813, -851, -3104
11.236118, -0.1705322265625, -0.0224609375, -0.01220703125, -2.9677734375, 0.49365234375, 0.09423828125, 220.114402, -952, -794, -3090
11.256735, -0.1400146484375, -0.0107421875, -0.0338134765625, -2.921875, 0.49365234375, 0.1201171875, 220.518282, -827, -844, -3133
11.277351, -0.1263427734375, 0.01324462890625, -0.0601806640625, -2.85693359375, 0.51318359375, 0.16552734375, 220.922162, -719, -884, -3095
11.297968, -0.15179443359375, 0.05364990234375, -0.05828857421875, -2.79052734375, 0.552734375, 0.2275390625, 221.326041, -849, -938, -3127
11.318585, -0.1920166015625, 0.03570556640625, -0.04974365234375, -2.8505859375, 0.607421875, 0.20947265625, 221.729921, -650, -667, -3101
11.339202, -0.22296142578125, 0.05413818359375, -0.04315185546875, -2.83544921875, 0.6455078125, 0.23974609375, 222.133801, -802, -709, -3142
11.359819, -0.22802734375, 0.06878662109375, -0.02825927734375, -2.8154296875, 0.654296875, 0.26220703125, 222.53768, -866, -695, -3121
11.380435, -0.201416015625, 0.0816650390625, -0.0338134765625, -2.78271484375, 0.6494140625, 0.28857421875, 222.94156, -840, -709, -3119
11.401052, -0.1810302734375, 0.1090087890625, -0.0313720703125, -2.7314453125, 0.64111328125, 0.330078125, 223.345439, -843, -716, -3127
11.421669, -0.16412353515625, 0.1331787109375, -0.04473876953125, -2.68896484375, 0.64453125, 0.3740234375, 223.749319, -874, -748, -3127
11.442285, -0.1221923828125, 0.151611328125, -0.05841064453125, -2.63671875, 0.62744140625, 0.412109375, 224.153199, -889, -729, -3131
11.462902, -0.13623046875, 0.1466064453125, -0.061279296875, -2.6591796875, 0.6572265625, 0.41552734375, 224.557078, -874, -735, -3111
11.483519, -0.1522216796875, 0.10009765625, -0.04705810546875, -2.73876953125, 0.68798828125, 0.357421875, 224.960958, -878, -735, -3108
11.504135, -0.1585693359375, 0.09027099609375, -0.04571533203125, -2.7587890625, 0.70849609375, 0.3515625, 225.364838, -920, -741, -3100
11.524752, -0.12347412109375, 0.087158203125, -0.037109375, -2.74560546875, 0.68896484375, 0.35107421875, 225.768717, -884, -737, -3104
11.545369, -0.11834716796875, 0.07940673828125, -0.03106689453125, -2.75634765625, 0.6962890625, 0.34521484375, 226.172597, -889, -732, -3117
11.565986, -0.091552734375, 0.06158447265625, -0.01666259765625, -2.76904296875, 0.68212890625, 0.32275390625, 226.576476, -882, -743, -3129
11.586602, -0.088623046875, 0.0126953125, -0.00244140625, -2.8408203125, 0.693359375, 0.259765625, 226.980356, -918, -747, -3140
11.607219, -0.0950927734375, -0.0531005859375, 0.00140380859375, -2.943359375, 0.71826171875, 0.17626953125, 227.384236, -889, -754, -3115
11.627836, -0.11181640625, -0.10186767578125, -0.0087890625, -3.01904296875, 0.75537109375, 0.11572265625, 227.788116, -878, -768, -3105
11.648453, -0.10516357421875, -0.0867919921875, -0.0386962890625, -2.9931640625, 0.78271484375, 0.14892578125, 228.191995, -884, -764, -3131
11.669069, -0.06866455078125, -0.03704833984375, -0.05999755859375, -2.90771484375, 0.77490234375, 0.23486328125, 228.595875, -869, -774, -3110
11.689686, -0.0506591796875, -0.00762939453125, -0.05218505859375, -2.857421875, 0.76025390625, 0.28125, 228.999754, -922, -735, -3114
11.710303, -0.05352783203125, -0.01904296875, -0.05810546875, -2.8759765625, 0.7802734375, 0.2724609375, 229.403634, -916, -621, -3090
11.73092, -0.06219482421875, -0.0018310546875, -0.041259765625, -2.85546875, 0.78125, 0.29541015625, 229.807514, -828, -659, -3098
11.751536, -0.0274658203125, -0.0086669921875, -0.05157470703125, -2.85107421875, 0.7734375, 0.29541015625, 230.211393, -826, -771, -3138
11.772153, -0.01239013671875, 0.025390625, -0.0592041015625, -2.79736328125, 0.7685546875, 0.353515625, 230.615273, -832, -855, -3097
11.79277, 0.00469970703125, 0.0438232421875, -0.05462646484375, -2.7646484375, 0.755859375, 0.3818359375, 231.019153, -842, -872, -3107
11.813386, -0.0322265625, 0.050048828125, -0.0382080078125, -2.77734375, 0.7802734375, 0.38623046875, 231.423032, -811, -870, -3127
11.834003, -0.0618896484375, 0.03961181640625, -0.040771484375, -2.806640625, 0.81396484375, 0.37744140625, 231.826912, -853, -859, -3127
11.85462, -0.03326416015625, 0.00555419921875, -0.00457763671875, -2.83935546875, 0.78466796875, 0.31591796875, 232.230791, -844, -870, -3108
11.875237, 0.0142822265625, -6.103515625e-05, 0.00787353515625, -2.828125, 0.74951171875, 0.30615234375, 232.634671, -832, -872, -3109
11.895853, 0.06121826171875, 0.00921630859375, 0.00640869140625, -2.79345703125, 0.71875, 0.32275390625, 233.038551, -845, -878, -3115
11.91647, 0.0908203125, 0.0367431640625, -0.00653076171875, -2.7392578125, 0.7041015625, 0.369140625, 233.442431, -821, -886, -3107
11.937087, 0.06585693359375, 0.03863525390625, -0.0093994140625, -2.75341796875, 0.73291015625, 0.37646484375, 233.84631, -824, -904, -3111
11.957704, 0.05322265625, 0.0439453125, 0.0010986328125, -2.75537109375, 0.74072265625, 0.38037109375, 234.25019, -840, -894, -3121
11.97832, 0.06060791015625, 0.04931640625, 0.00799560546875, -2.74658203125, 0.7353515625, 0.38623046875, 234.654069, -825, -902, -3139
11.998937, 0.07958984375, 0.02386474609375, 0.008056640625, -2.7734375, 0.732421875, 0.35400390625, 235.057949, -836, -899, -3110
12.019554, 0.09222412109375, 0.0029296875, 0.02362060546875, -2.79833984375, 0.72265625, 0.31982421875, 235.461829, -850, -899, -3119
12.04017, 0.101318359375, -0.0032958984375, 0.04302978515625, -2.8046875, 0.708984375, 0.30419921875, 235.865708, -822, -904, -3110
12.060787, 0.11474609375, -0.003173828125, 0.05859375, -2.7998046875, 0.69287109375, 0.29931640625, 236.269588, -811, -897, -3109
12.081404, 0.1258544921875, -6.103515625e-05, 0.06292724609375, -2.791015625, 0.6845703125, 0.302734375, 236.673467, -830, -891, -3127
12.102021, 0.12384033203125, -0.0198974609375, 0.0777587890625, -2.82373046875, 0.68505859375, 0.271484375, 237.077347, -821, -910, -3102
12.122638, 0.13836669921875, -0.0247802734375, 0.10540771484375, -2.826171875, 0.66015625, 0.255859375, 237.481227, -823, -904, -3096
12.143254, 0.1761474609375, 0.01324462890625, 0.0635986328125, -2.74755859375, 0.6513671875, 0.32177734375, 237.885106, -821, -897, -3107
12.163871, 0.1995849609375, 0.0087890625, 0.0673828125, -2.74169921875, 0.63232421875, 0.31494140625, 238.288986, -832, -902, -3089
12.184488, 0.18890380859375, -0.0302734375, 0.070068359375, -2.81396484375, 0.6513671875, 0.26171875, 238.692866, -834, -912, -3114
12.205104, 0.14227294921875, -0.0509033203125, 0.082275390625, -2.8720703125, 0.689453125, 0.22900390625, 239.096745, -819, -916, -3105
12.225721, 0.16033935546875, -0.04083251953125, 0.07952880859375, -2.849609375, 0.67724609375, 0.24365234375, 239.500625, -837, -917, -3113
12.246338, 0.15618896484375, -0.0341796875, 0.07342529296875, -2.84326171875, 0.68603515625, 0.25439453125, 239.904505, -834, -912, -3116
12.266954, 0.15350341796875, -0.05682373046875, 0.0775146484375, -2.8818359375, 0.69140625, 0.22119140625, 240.308384, -828, -914, -3121
12.287571, 0.09869384765625, -0.04730224609375, 0.06097412109375, -2.890625, 0.74755859375, 0.2392578125, 240.712264, -835, -907, -3136
12.308188, 0.1048583984375, -0.03167724609375, 0.04742431640625, -2.8671875, 0.7509765625, 0.265625, 241.116144, -824, -904, -3100
12.328805, 0.0799560546875, -0.0347900390625, 0.0421142578125, -2.8828125, 0.77587890625, 0.26220703125, 241.520023, -824, -908, -3106
12.349422, 0.0701904296875, -0.06671142578125, 0.03778076171875, -2.9326171875, 0.79296875, 0.21630859375, 241.923903, -804, -906, -3110
12.370038, 0.0799560546875, -0.0699462890625, 0.038330078125, -2.93603515625, 0.78662109375, 0.21044921875, 242.327782, -822, -905, -3108
12.390655, 0.0953369140625, -0.050048828125, 0.0281982421875, -2.9033203125, 0.77978515625, 0.2421875, 242.731662, -829, -894, -3108
12.411272, 0.1043701171875, -0.025390625, 0.0240478515625, -2.86474609375, 0.771484375, 0.279296875, 243.135542, -813, -914, -3117
12.431888, 0.08587646484375, -0.03802490234375, 0.0274658203125, -2.8916015625, 0.7861328125, 0.2578125, 243.539421, -828, -895, -3103
12.452505, 0.0390625, -0.023193359375, 0.02728271484375, -2.888671875, 0.8173828125, 0.27880859375, 243.943301, -811, -900, -3114
12.473122, 0.0313720703125, 0.02130126953125, 0.01654052734375, -2.833984375, 0.81982421875, 0.3466796875, 244.347181, -834, -906, -3117
12.493738, 0.0592041015625, 0.00799560546875, 0.00714111328125, -2.8408203125, 0.8095703125, 0.3310546875, 244.75106, -826, -921, -3118
12.514355, 0.07159423828125, 0.04693603515625, -0.00567626953125, -2.78369140625, 0.79833984375, 0.3935546875, 245.15494, -811, -910, -3096
12.534972, 0.03369140625, 0.03094482421875, 0.00958251953125, -2.822265625, 0.81884765625, 0.3603515625, 245.55882, -832, -899, -3116
12.555589, 0.01702880859375, 0.03375244140625, 0.00616455078125, -2.826171875, 0.8310546875, 0.365234375, 245.962699, -819, -906, -3110
12.576206, -0.01739501953125, 0.0162353515625, -0.01824951171875, -2.861328125, 0.87548828125, 0.3515625, 246.366579, -828, -903, -3106
12.596822, -0.0311279296875, -0.0184326171875, -0.0107421875, -2.90966796875, 0.88623046875, 0.29296875, 246.770458, -828, -904, -3105
12.617439, -0.03521728515625, -0.0364990234375, -0.009765625, -2.93359375, 0.89013671875, 0.2626953125, 247.174338, -816, -906, -3111
12.638056, -0.0244140625, -0.0208740234375, -0.00762939453125, -2.9111328125, 0.8759765625, 0.28466796875, 247.578218, -826, -927, -3137
12.658672, -0.03826904296875, 0.005126953125, -0.008056640625, -2.8828125, 0.876953125, 0.3232421875, 247.982097, -807, -911, -3116
12.679289, -0.03460693359375, -0.0010986328125, -0.01226806640625, -2.88916015625, 0.87646484375, 0.314453125, 248.385977, -818, -911, -3104
12.699906, -0.03717041015625, -0.0257568359375, -0.00439453125, -2.9208984375, 0.875, 0.271484375, 248.789856, -815, -906, -3116
12.720523, -0.0841064453125, -0.0634765625, -0.021484375, -2.9794921875, 0.92236328125, 0.216796875, 249.193736, -798, -900, -3112
12.741139, -0.0880126953125, -0.08837890625, -0.0185546875, -3.01123046875, 0.9228515625, 0.17333984375, 249.597616, -796, -917, -3115
12.761756, -0.04449462890625, -0.09014892578125, -0.01995849609375, -3.005859375, 0.89306640625, 0.169921875, 250.001496, -803, -914, -3118
12.782373, -0.017822265625, -0.08453369140625, -0.03558349609375, -2.9931640625, 0.88330078125, 0.1826171875, 250.405375, -811, -919, -3115
12.80299, -0.00616455078125, -0.047119140625, -0.05413818359375, -2.93798828125, 0.87890625, 0.25146484375, 250.809255, -800, -925, -3114
12.823606, -0.0133056640625, -0.01470947265625, -0.05401611328125, -2.89501953125, 0.8720703125, 0.30322265625, 251.213134, -809, -917, -3100
12.844223, -0.0625, -0.01287841796875, -0.04364013671875, -2.9072265625, 0.89208984375, 0.2998046875, 251.617014, -826, -919, -3098
12.86484, -0.07440185546875, -0.01055908203125, -0.04632568359375, -2.90673828125, 0.896484375, 0.3037109375, 252.020894, -812, -907, -3132
12.885456, -0.09698486328125, -0.0263671875, -0.03973388671875, -2.931640625, 0.904296875, 0.27392578125, 252.424774, -822, -894, -3112
12.906073, -0.095458984375, -0.0389404296875, -0.03485107421875, -2.94580078125, 0.89697265625, 0.25048828125, 252.828653, -806, -921, -3092
12.92669, -0.08551025390625, -0.02337646484375, -0.04327392578125, -2.921875, 0.88818359375, 0.27783203125, 253.232533, -824, -908, -3135
12.947307, -0.08740234375, -0.00921630859375, -0.02984619140625, -2.90234375, 0.8701171875, 0.29296875, 253.636412, -777, -810, -3118
12.967923, -0.05328369140625, 0.010498046875, -0.04559326171875, -2.86279296875, 0.84765625, 0.32958984375, 254.040292, -724, -717, -3121
12.98854, -0.024169921875, 0.04345703125, -0.03265380859375, -2.80419921875, 0.8017578125, 0.3701171875, 254.444171, -712, -706, -3121
13.009157, -0.0338134765625, 0.03765869140625, -0.0462646484375, -2.81298828125, 0.8134765625, 0.3681640625, 254.848051, -708, -687, -3111
13.029774, -0.06787109375, 0.01800537109375, -0.037841796875, -2.8505859375, 0.83056640625, 0.33349609375, 255.251931, -615, -600, -3090
13.05039, -0.0712890625, 0.02581787109375, -0.03759765625, -2.83837890625, 0.8232421875, 0.34375, 255.655811, -739, -581, -3079
13.071007, -0.0841064453125, 0.05487060546875, -0.03851318359375, -2.80322265625, 0.81787109375, 0.38427734375, 256.05969, -815, -668, -3110
13.091624, -0.09356689453125, 0.07489013671875, -0.04705810546875, -2.77880859375, 0.8173828125, 0.416015625, 256.46357, -754, -659, -3083
13.112241, -0.0946044921875, 0.08319091796875, -0.05535888671875, -2.7646484375, 0.8134765625, 0.43115234375, 256.867449, -792, -668, -3118
13.132857, -0.08856201171875, 0.0799560546875, -0.0504150390625, -2.76171875, 0.79931640625, 0.42236328125, 257.271329, -818, -689, -3126
13.153474, -0.103271484375, 0.07342529296875, -0.039794921875, -2.7724609375, 0.79638671875, 0.40576171875, 257.675209, -773, -786, -3140
13.174091, -0.083984375, 0.05279541015625, -0.02935791015625, -2.78564453125, 0.77294921875, 0.37060546875, 258.079088, -929, -836, -3099
13.194707, -0.06927490234375, 0.03125, -0.02728271484375, -2.802734375, 0.7568359375, 0.3388671875, 258.482968, -927, -862, -3117
13.215324, -0.07696533203125, 0.03411865234375, -0.02813720703125, -2.79736328125, 0.75390625, 0.34228515625, 258.886848, -899, -867, -3112
13.235941, -0.08306884765625, 0.0350341796875, -0.0335693359375, -2.79443359375, 0.75341796875, 0.345703125, 259.290727, -922, -876, -3083
13.256558, -0.1021728515625, 0.03509521484375, -0.02813720703125, -2.798828125, 0.7548828125, 0.34228515625, 259.694607, -937, -878, -3107
13.277174, -0.120361328125, 0.02001953125, -0.01446533203125, -2.82275390625, 0.75390625, 0.31494140625, 260.098486, -922, -848, -3106
13.297791, -0.09417724609375, 0.01153564453125, -0.00274658203125, -2.8173828125, 0.71875, 0.29833984375, 260.502366, -923, -872, -3098
13.318408, -0.04254150390625, 0.00848388671875, -0.00286865234375, -2.7890625, 0.66748046875, 0.29345703125, 260.906246, -916, -866, -3102
13.339025, -0.0714111328125, 0.00830078125, -0.0032958984375, -2.79931640625, 0.6826171875, 0.29345703125, 261.310125, -915, -883, -3106
13.359641, -0.114990234375, 0.01654052734375, 0.00384521484375, -2.80419921875, 0.70166015625, 0.30078125, 261.714005, -925, -887, -3103
13.380258, -0.08868408203125, 0.01947021484375, 0.02520751953125, -2.77978515625, 0.6572265625, 0.2958984375, 262.117885, -917, -881, -3123
13.400875, 0.015869140625, -0.01348876953125, 0.025390625, -2.7607421875, 0.56103515625, 0.25390625, 262.521764, -915, -866, -3103
13.421491, 0.10479736328125, -0.0113525390625, 0.02703857421875, -2.669921875, 0.46142578125, 0.25634765625, 262.925644, -908, -883, -3079
13.442108, 0.05511474609375, 0.031005859375, 0.02386474609375, -2.62890625, 0.49658203125, 0.3095703125, 263.329524, -900, -872, -3084
13.462725, 0.00445556640625, 0.040771484375, 0.04986572265625, -2.64990234375, 0.51953125, 0.31103515625, 263.733403, -908, -887, -3121
13.483342, 0.0384521484375, 0.00946044921875, 0.05987548828125, -2.6640625, 0.47705078125, 0.2705078125, 264.137283, -909, -879, -3106
13.503959, 0.14013671875, -0.0296630859375, 0.05352783203125, -2.61767578125, 0.37109375, 0.2265625, 264.541163, -904, -876, -3099
13.524575, 0.21343994140625, -0.036376953125, 0.0433349609375, -2.49560546875, 0.28369140625, 0.22119140625, 264.945042, -917, -898, -3083
13.545192, 0.24871826171875, -0.01593017578125, 0.0364990234375, -2.337890625, 0.23291015625, 0.248046875, 265.348922, -904, -902, -3116
13.565809, 0.23297119140625, 0.0076904296875, 0.02508544921875, -2.298828125, 0.24169921875, 0.27978515625, 265.752801, -902, -876, -3093
13.586425, 0.18194580078125, 0.01324462890625, 0.015380859375, -2.380859375, 0.2919921875, 0.28955078125, 266.156681, -891, -901, -3082
13.607042, 0.1207275390625, 0.00616455078125, 0.0291748046875, -2.4912109375, 0.34521484375, 0.27685546875, 266.560561, -890, -906, -3080
13.627659, 0.08087158203125, 0.006103515625, 0.0455322265625, -2.537109375, 0.37060546875, 0.271484375, 266.96444, -892, -905, -3107
13.648275, 0.07318115234375, 0.01031494140625, 0.04443359375, -2.52587890625, 0.36865234375, 0.2763671875, 267.36832, -894, -888, -3083
13.668892, 0.092041015625, 0.00518798828125, 0.03570556640625, -2.49365234375, 0.34326171875, 0.2734375, 267.7722, -879, -883, -3086
13.689509, 0.09423828125, 0.00335693359375, 0.02410888671875, -2.47900390625, 0.33544921875, 0.275390625, 268.176079, -875, -894, -3084
13.710126, 0.07672119140625, -0.00396728515625, 0.02484130859375, -2.50830078125, 0.3447265625, 0.2666015625, 268.579959, -888, -877, -3092
13.730743, 0.04827880859375, -0.0076904296875, 0.02447509765625, -2.54541015625, 0.36572265625, 0.2626953125, 268.983838, -883, -917, -3109
13.751359, 0.02764892578125, -0.0120849609375, 0.0260009765625, -2.5703125, 0.37744140625, 0.25732421875, 269.387718, -879, -934, -3096
13.771976, 0.02337646484375, -0.0223388671875, 0.0255126953125, -2.5859375, 0.3740234375, 0.24560546875, 269.791598, -883, -909, -3084
13.792593, 0.01739501953125, -0.03265380859375, 0.02569580078125, -2.60498046875, 0.3720703125, 0.234375, 270.195478, -877, -908, -3088
13.813209, 0.019775390625, -0.0389404296875, 0.0191650390625, -2.60400390625, 0.3642578125, 0.22900390625, 270.599357, -888, -924, -3105
13.833826, 0.03082275390625, -0.049072265625, 0.00860595703125, -2.60009765625, 0.34912109375, 0.22021484375, 271.003237, -878, -910, -3098
13.854443, 0.01483154296875, -0.0528564453125, 0.0042724609375, -2.6201171875, 0.359375, 0.21728515625, 271.407116, -868, -930, -3114
13.875059, -0.02923583984375, -0.0587158203125, 0.00982666015625, -2.67822265625, 0.39501953125, 0.20947265625, 1685.558, -152, -654, -2876
13.895676, -0.0406494140625, -0.06329345703125, 0.01318359375, -2.6923828125, 0.3974609375, 0.20361328125, 1685.961691, -150, -606, -2860
13.916293, -0.02410888671875, -0.0538330078125, 0.00372314453125, -2.642578125, 0.37646484375, 0.216796875, 1686.365382, -363, -483, -2973
13.93691, -0.00433349609375, -0.04736328125, -0.00592041015625, -2.59130859375, 0.35205078125, 0.22705078125, 1686.769074, -361, -498, -2995
13.957526, 0.00067138671875, -0.04046630859375, -0.01361083984375, -2.5576171875, 0.341796875, 0.2373046875, 1687.172765, -326, -499, -2999
13.978143, -0.0352783203125, -0.03863525390625, -0.01287841796875, -2.59521484375, 0.3720703125, 0.2392578125, 1687.576456, -354, -457, -2985
13.99876, -0.084228515625, -0.03973388671875, -0.00555419921875, -2.64990234375, 0.41162109375, 0.23583984375, 1687.980148, -332, -466, -2986
14.019377, -0.09259033203125, -0.0345458984375, 0, -2.6416015625, 0.4111328125, 0.240234375, 1688.383839, -338, -474, -2976
14.039993, -0.050048828125, -0.0335693359375, -0.0067138671875, -2.580078125, 0.36572265625, 0.2431640625, 1688.78753, -368, -471, -2995
14.06061, -0.0091552734375, -0.03118896484375, -0.01885986328125, -2.50537109375, 0.322265625, 0.2490234375, 1689.191222, -332, -456, -2965
14.081227, 0.00872802734375, -0.010498046875, -0.0274658203125, -2.4189453125, 0.298828125, 0.27490234375, 1689.594913, -321, -459, -2978
14.101844, -0.00665283203125, 0.00506591796875, -0.0263671875, -2.4072265625, 0.30859375, 0.29150390625, 1689.998605, -340, -471, -2962
14.12246, -0.0531005859375, 0.00958251953125, -0.02545166015625, -2.46923828125, 0.35107421875, 0.2958984375, 1690.402296, -319, -465, -2999
14.143077, -0.08428955078125, 0.008544921875, -0.01641845703125, -2.51123046875, 0.375, 0.291015625, 1690.805988, -526, -465, -3061
14.163694, -0.079833984375, 0.01617431640625, -0.0068359375, -2.48583984375, 0.3623046875, 0.29541015625, 1691.209679, -906, -446, -3086
14.18431, -0.0469970703125, 0.014892578125, -0.0186767578125, -2.43359375, 0.330078125, 0.29736328125, 1691.61337, -459, -592, -3110
14.204927, -0.01348876953125, 0.0069580078125, -0.03350830078125, -2.3857421875, 0.2978515625, 0.29345703125, 1692.017062, -482, -638, -3129
14.225544, -0.00445556640625, 0.0078125, -0.03668212890625, -2.3623046875, 0.2861328125, 0.29443359375, 1692.420753, -558, -499, -3096
14.246161, -0.02362060546875, 0.0115966796875, -0.03118896484375, -2.3876953125, 0.3017578125, 0.29638671875, 1692.824444, -480, -573, -3118
14.266777, -0.050048828125, 0.01531982421875, -0.02178955078125, -2.42431640625, 0.3232421875, 0.29638671875, 1693.228136, -582, -508, -3116
14.287394, -0.0506591796875, 0.018798828125, -0.01904296875, -2.4169921875, 0.32080078125, 0.29833984375, 1693.631827, -501, -526, -3098
14.308011, -0.04083251953125, 0.0179443359375, -0.02032470703125, -2.400390625, 0.3095703125, 0.296875, 1694.035518, -383, -571, -3055
14.328628, -0.03460693359375, 0.0164794921875, -0.0220947265625, -2.3916015625, 0.302734375, 0.294921875, 1694.43921, -288, -511, -2951
14.349244, -0.0279541015625, 0.017578125, -0.02593994140625, -2.37744140625, 0.29638671875, 0.29638671875, 1694.842901, -353, -503, -3011
14.369861, -0.0257568359375, 0.0250244140625, -0.02752685546875, -2.35986328125, 0.29345703125, 0.30419921875, 1695.246593, -315, -526, -2996
14.390478, -0.03973388671875, 0.03289794921875, -0.02294921875, -2.37255859375, 0.3056640625, 0.31005859375, 1695.650284, -304, -482, -2978
14.411094, -0.0521240234375, 0.03521728515625, -0.01763916015625, -2.39208984375, 0.31640625, 0.3095703125, 1696.053975, -313, -509, -2988
14.431711, -0.04656982421875, 0.02947998046875, -0.01324462890625, -2.39599609375, 0.310546875, 0.30078125, 1696.457667, -351, -490, -2999
14.452328, -0.041259765625, 0.02703857421875, -0.01556396484375, -2.3955078125, 0.30712890625, 0.29736328125, 1696.861358, -642, -442, -3098
14.472945, -0.033447265625, 0.01702880859375, -0.01629638671875, -2.40576171875, 0.3017578125, 0.28564453125, 1697.26505, -157, -545, -2835
14.493562, -0.02337646484375, 0.0106201171875, -0.0150146484375, -2.40576171875, 0.29345703125, 0.2763671875, 1697.668741, -74, -695, -2751
14.514178, -0.0284423828125, 0.0120849609375, -0.01470947265625, -2.41845703125, 0.30029296875, 0.2763671875, 1698.072432, -106, -670, -2822
14.534795, -0.0404052734375, 0.01129150390625, -0.00946044921875, -2.4482421875, 0.3134765625, 0.2724609375, 1698.476124, -136, -664, -2829
14.555412, -0.05267333984375, 0.0093994140625, -0.005126953125, -2.48046875, 0.32763671875, 0.267578125, 1698.879815, -157, -679, -2834
14.576028, -0.048095703125, 0.00762939453125, 0.00054931640625, -2.48486328125, 0.32421875, 0.26171875, 1699.283506, -102, -719, -2801
14.596645, -0.03460693359375, 0.00628662109375, -0.00164794921875, -2.474609375, 0.31494140625, 0.25927734375, 1699.687198, -47, -992, -2674
14.617262, -0.01397705078125, 0.00634765625, -0.0069580078125, -2.4482421875, 0.29931640625, 0.2587890625, 1700.090889, -313, -1280, -2816
14.637878, -0.00494384765625, 0.01171875, -0.007080078125, -2.43115234375, 0.29345703125, 0.2626953125, 1700.494581, -401, -1193, -2949
14.658495, -0.01177978515625, 0.025390625, -0.00347900390625, -2.42626953125, 0.30322265625, 0.27490234375, 1700.898272, -494, -1204, -2976
14.679112, -0.0233154296875, 0.03985595703125, -0.00091552734375, -2.4287109375, 0.31787109375, 0.2880859375, 1701.301963, -566, -1121, -3049
14.699729, -0.032470703125, 0.05078125, 0.0029296875, -2.4345703125, 0.330078125, 0.29638671875, 1701.705654, -467, -1197, -2953
14.720346, -0.05126953125, 0.054931640625, 0.00689697265625, -2.46826171875, 0.3525390625, 0.29736328125, 1702.109346, -315, -1178, -2855
14.740962, -0.103271484375, 0.05523681640625, 0.03326416015625, -2.54931640625, 0.39892578125, 0.287109375, 1702.513037, -444, -1178, -2953
14.761579, -0.13458251953125, 0.02447509765625, 0.0350341796875, -2.6513671875, 0.4365234375, 0.25146484375, 1702.916729, -193, -1161, -2707
14.782196, -0.10174560546875, -0.0076904296875, 0.060302734375, -2.69287109375, 0.4052734375, 0.20751953125, 1703.32042, -224, -1188, -2767
14.802812, -0.003173828125, -0.01885986328125, 0.0633544921875, -2.6123046875, 0.31640625, 0.1923828125, 1703.724112, -357, -1205, -2878
14.823429, 0.06072998046875, -0.0025634765625, 0.0400390625, -2.47705078125, 0.26318359375, 0.21240234375, 1704.127803, -245, -1193, -2750
14.844046, 0.106689453125, 0.0455322265625, 0.02496337890625, -2.27734375, 0.22216796875, 0.267578125, 1704.531494, -252, -1189, -2780
14.864663, 0.1578369140625, 0.05450439453125, 0.03167724609375, -2.14111328125, 0.17138671875, 0.2724609375, 1704.935186, -285, -1185, -2814
14.885279, 0.158447265625, 0.075927734375, 0.049072265625, -2.1240234375, 0.173828125, 0.28759765625, 1705.338877, -246, -1186, -2786
14.905896, 0.155029296875, 0.0640869140625, 0.06396484375, -2.17919921875, 0.1826171875, 0.26806640625, 1705.742569, -250, -1207, -2765
14.926513, 0.18670654296875, 0.02374267578125, 0.07269287109375, -2.197265625, 0.15625, 0.2197265625, 1706.14626, -277, -1206, -2787
14.94713, 0.16827392578125, 0.02703857421875, 0.0811767578125, -2.2763671875, 0.1826171875, 0.21826171875, 1706.549951, -265, -1207, -2785
14.967746, 0.158935546875, 0.02435302734375, 0.10400390625, -2.33837890625, 0.19580078125, 0.20703125, 1706.953642, -231, -1191, -2759
14.988363, 0.18206787109375, 0.02276611328125, 0.1064453125, -2.30517578125, 0.17919921875, 0.20166015625, 1707.357334, -258, -1208, -2780
15.00898, 0.2376708984375, -0.0048828125, 0.1094970703125, -2.2265625, 0.12841796875, 0.16845703125, 1707.761025, -243, -1176, -2745
15.029596, 0.309814453125, -0.0283203125, 0.11395263671875, -1.9658203125, 0.0576171875, 0.138671875, 1708.164717, -241, -1203, -2747
15.050213, 0.3271484375, -0.01971435546875, 0.0936279296875, -1.8828125, 0.0478515625, 0.1484375, 1708.568408, -252, -1218, -2759
15.07083, 0.330322265625, 0.00457763671875, 0.0706787109375, -1.86669921875, 0.0537109375, 0.1767578125, 1708.972099, -241, -1201, -2760
15.091447, 0.31610107421875, -0.01019287109375, 0.048828125, -2.04150390625, 0.0810546875, 0.16015625, 1709.375791, -249, -1203, -2756
15.112063, 0.2501220703125, -0.056396484375, 0.0391845703125, -2.60986328125, 0.171875, 0.10205078125, 1709.779482, -252, -1201, -2756
15.13268, 0.16925048828125, -0.10760498046875, 0.04901123046875, -3.01953125, 0.2744140625, 0.0341796875, 1710.183173, -247, -1203, -2763
15.153297, 0.072021484375, -0.11370849609375, 0.05377197265625, -3.08642578125, 0.388671875, 0.0224609375, 1710.586865, -245, -1206, -2751
15.173914, 0.0284423828125, -0.08563232421875, 0.02532958984375, -3.0302734375, 0.45654296875, 0.0546875, 1710.990556, -253, -1206, -2771
15.19453, 0.02294921875, -0.04083251953125, -0.00103759765625, -2.9326171875, 0.4833984375, 0.111328125, 1711.394248, -253, -1208, -2738
15.215147, 0.01739501953125, -0.02490234375, -0.00714111328125, -2.91015625, 0.50146484375, 0.12939453125, 1711.797939, -256, -1207, -2756
15.235764, -0.02587890625, -0.019287109375, -0.0225830078125, -2.93017578125, 0.5634765625, 0.1357421875, 1712.20163, -256, -1212, -2757
15.256381, -0.06103515625, -0.03631591796875, -0.02435302734375, -2.98681640625, 0.60888671875, 0.1083984375, 1712.605322, -256, -1191, -2760
15.276997, -0.09979248046875, -0.03363037109375, -0.029052734375, -3.0009765625, 0.65576171875, 0.10888671875, 1713.009013, -246, -1198, -2744
15.297614, -0.11566162109375, -0.02923583984375, -0.04046630859375, -3.0048828125, 0.685546875, 0.11279296875, 1713.412705, -235, -1201, -2763
15.318231, -0.1148681640625, -0.02972412109375, -0.04974365234375, -3.01220703125, 0.7001953125, 0.109375, 1713.816396, -250, -1189, -2749
15.338847, -0.135009765625, -0.01239013671875, -0.0682373046875, -2.9951171875, 0.7373046875, 0.1337890625, 1714.220087, -254, -1208, -2754
15.359464, -0.1446533203125, -0.00897216796875, -0.07183837890625, -2.99853515625, 0.75537109375, 0.1357421875, 1714.623779, -243, -1197, -2730
15.380081, -0.15283203125, -0.0169677734375, -0.0643310546875, -3.01904296875, 0.7646484375, 0.1181640625, 1715.02747, -439, -1134, -2977
15.400698, -0.1634521484375, -0.01593017578125, -0.072998046875, -3.02490234375, 0.78662109375, 0.1171875, 1715.431161, -165, -1041, -2780
15.421314, -0.15179443359375, -0.02252197265625, -0.07867431640625, -3.03857421875, 0.7900390625, 0.10400390625, 1715.834853, -51, -838, -2620
15.441931, -0.18695068359375, -0.0206298828125, -0.1002197265625, -3.0458984375, 0.83984375, 0.10693359375, 1716.238544, -330, -1165, -2865
15.462548, -0.18310546875, -0.02069091796875, -0.11163330078125, -3.0498046875, 0.8525390625, 0.1044921875, 1716.642235, -378, -1258, -2834
15.483165, -0.158935546875, -0.00445556640625, -0.1015625, -3.02734375, 0.83154296875, 0.12548828125, 1717.045927, -218, -1227, -2658
15.503781, -0.1455078125, -0.021240234375, -0.10003662109375, -3.0546875, 0.82763671875, 0.09423828125, 1717.449618, -279, -1121, -2821
15.524398, -0.156005859375, -0.01422119140625, -0.0986328125, -3.05029296875, 0.83935546875, 0.1015625, 1717.85331, -205, -1139, -2711
15.545015, -0.1461181640625, 0.0069580078125, -0.1151123046875, -3.02197265625, 0.84912109375, 0.13623046875, 1718.257001, -197, -1187, -2676
15.565631, -0.1861572265625, 0.0203857421875, -0.1182861328125, -3.01416015625, 0.88330078125, 0.15625, 1718.660692, -281, -1207, -2769
15.586248, -0.18109130859375, 0.033203125, -0.1026611328125, -2.99951171875, 0.8701171875, 0.169921875, 1719.064384, -649, -1186, -3028
15.606865, -0.17138671875, 0.05511474609375, -0.08685302734375, -2.97119140625, 0.85205078125, 0.197265625, 1719.468075, -742, -1238, -2976
15.627482, -0.1644287109375, 0.05096435546875, -0.076171875, -2.97900390625, 0.84326171875, 0.18505859375, 1719.871767, -845, -1227, -2997
15.648099, -0.0855712890625, 0.03289794921875, -0.0556640625, -2.99072265625, 0.77587890625, 0.1494140625, 1720.275458, -522, -1235, -2945
15.668715, -0.06634521484375, 0.035888671875, -0.06097412109375, -2.98486328125, 0.76806640625, 0.15283203125, 1720.679149, -323, -1187, -2890
15.689332, -0.0845947265625, 0.016357421875, -0.05596923828125, -3.02197265625, 0.78369140625, 0.11962890625, 1721.08284, -401, -1229, -2864
15.709949, -0.08905029296875, 0.0052490234375, -0.0384521484375, -3.04248046875, 0.77783203125, 0.09765625, 1721.486532, -427, -1246, -2892
15.730565, -0.08349609375, 0.004638671875, -0.03265380859375, -3.04541015625, 0.771484375, 0.09375, 1721.890223, -412, -1127, -2972
15.751182, -0.0760498046875, 0.0001220703125, -0.02178955078125, -3.05322265625, 0.76025390625, 0.083984375, 1722.293915, -511, -1035, -3058
15.771799, -0.0640869140625, -0.00299072265625, -0.0233154296875, -3.05859375, 0.75439453125, 0.07763671875, 1722.697606, -191, -966, -2867
15.792415, -0.03704833984375, -0.00518798828125, -0.0076904296875, -3.060546875, 0.72314453125, 0.0712890625, 1723.101297, -77, -762, -2655
15.813032, -0.0035400390625, -0.0115966796875, 0.00146484375, -3.06884765625, 0.6904296875, 0.0595703125, 1723.504989, -111, -788, -2777
15.833649, 0.01611328125, -0.007568359375, -0.0006103515625, -3.060546875, 0.67578125, 0.064453125, 1723.90868, -151, -800, -2817
15.854266, 0.00726318359375, -0.00225830078125, 0.00823974609375, -3.05419921875, 0.677734375, 0.0703125, 1724.312372, -155, -786, -2812
15.874883, -0.0042724609375, 0.01409912109375, 0.01617431640625, -3.029296875, 0.68212890625, 0.09130859375, 1724.716063, -161, -786, -2819
15.895499, 0.0048828125, 0.0245361328125, 0.0196533203125, -3.0107421875, 0.67138671875, 0.1044921875, 1725.119754, -157, -760, -2799
15.916116, 0.019287109375, 0.0281982421875, 0.02142333984375, -3.001953125, 0.65771484375, 0.1083984375, 1725.523446, -134, -792, -2791
15.936733, 0.03179931640625, 0.03228759765625, 0.023681640625, -2.99169921875, 0.64453125, 0.11328125, 1725.927137, -104, -818, -2752
15.957349, 0.0347900390625, 0.035888671875, 0.025146484375, -2.9853515625, 0.640625, 0.11767578125, 1726.330828, -319, -1070, -2917
15.977966, 0.0330810546875, 0.0360107421875, 0.0260009765625, -2.9853515625, 0.640625, 0.1171875, 1726.73452, -452, -1178, -2944
15.998583, 0.0301513671875, 0.0274658203125, 0.031494140625, -3.00146484375, 0.63916015625, 0.1044921875, 1727.138211, -726, -1113, -3065
16.019199, 0.02508544921875, 0.013427734375, 0.0374755859375, -3.02685546875, 0.63916015625, 0.08544921875, 1727.541903, -241, -1262, -2631
16.039816, 0.03466796875, -0.00146484375, 0.03955078125, -3.0517578125, 0.62890625, 0.0654296875, 1727.945594, -195, -1138, -2717
16.060433, 0.05560302734375, -0.01824951171875, 0.04010009765625, -3.0791015625, 0.60888671875, 0.04345703125, 1728.349285, -176, -1159, -2667
16.08105, 0.07098388671875, -0.0277099609375, 0.041259765625, -3.0947265625, 0.5927734375, 0.03125, 1728.752977, -199, -1157, -2711
16.101666, 0.07244873046875, -0.03619384765625, 0.04180908203125, -3.1103515625, 0.58935546875, 0.0205078125, 1729.156668, -197, -1135, -2724
16.122283, 0.06341552734375, -0.04241943359375, 0.045166015625, -3.1220703125, 0.59326171875, 0.0126953125, 1729.56036, -214, -1155, -2706
16.1429, 0.048828125, -0.04132080078125, 0.046630859375, -3.119140625, 0.60302734375, 0.01513671875, 1729.964051, -252, -1038, -2855
16.163517, 0.04998779296875, -0.04400634765625, 0.0499267578125, -3.12255859375, 0.59765625, 0.0126953125, 1730.367742, -300, -1052, -2909
16.184133, 0.0626220703125, -0.040771484375, 0.04864501953125, -3.1142578125, 0.58447265625, 0.017578125, 1730.771434, -301, -1068, -2905
16.20475, 0.06915283203125, -0.032470703125, 0.0416259765625, -3.095703125, 0.580078125, 0.02978515625, 1731.175125, -326, -1064, -2932
16.225367, 0.07415771484375, -0.0302734375, 0.03948974609375, -3.08935546875, 0.57373046875, 0.03369140625, 1731.578816, -330, -1042, -2920
16.245984, 0.064208984375, -0.0308837890625, 0.0421142578125, -3.08935546875, 0.578125, 0.03369140625, 1731.982508, -296, -1042, -2912
16.2666, 0.055419921875, -0.036376953125, 0.04248046875, -3.0986328125, 0.5830078125, 0.02783203125, 1732.386199, -311, -1065, -2891
16.287217, 0.05621337890625, -0.03729248046875, 0.03790283203125, -3.09814453125, 0.58203125, 0.0283203125, 1732.789891, -330, -1077, -2932
16.307834, 0.055419921875, -0.033447265625, 0.03515625, -3.08837890625, 0.5810546875, 0.03466796875, 1733.193582, -302, -1056, -2894
16.32845, 0.05938720703125, -0.02557373046875, 0.0335693359375, -3.0703125, 0.5751953125, 0.0458984375, 1733.597273, -585, -973, -3093
16.349067, 0.05682373046875, -0.01983642578125, 0.03302001953125, -3.05615234375, 0.57421875, 0.05517578125, 1734.000965, -539, -982, -3093
16.369684, 0.04803466796875, -0.0198974609375, 0.033935546875, -3.05517578125, 0.578125, 0.05615234375, 1734.404656, -47, -954, -2600
16.390301, 0.04388427734375, -0.01690673828125, 0.0311279296875, -3.04736328125, 0.580078125, 0.0615234375, 1734.808348, -28, -798, -2564
16.410917, 0.0423583984375, -0.01263427734375, 0.02984619140625, -3.03662109375, 0.5791015625, 0.068359375, 1735.212039, -72, -869, -2662
16.431534, 0.0494384765625, -0.00927734375, 0.02593994140625, -3.02587890625, 0.5712890625, 0.07470703125, 1735.61573, -79, -850, -2676
16.452151, 0.04644775390625, -0.008056640625, 0.02294921875, -3.02099609375, 0.572265625, 0.07763671875, 1736.019421, -62, -851, -2650
16.472768, 0.0428466796875, -0.01251220703125, 0.02105712890625, -3.02783203125, 0.5732421875, 0.07373046875, 1736.423113, -62, -855, -2672
16.493384, 0.031005859375, -0.00933837890625, 0.02154541015625, -3.02099609375, 0.58056640625, 0.0791015625, 1736.826804, -64, -832, -2665
16.514001, 0.01837158203125, -0.00244140625, 0.0213623046875, -3.00830078125, 0.58837890625, 0.08935546875, 1737.230496, -55, -847, -2645
16.534618, 0.0196533203125, 0.00250244140625, 0.01934814453125, -2.99560546875, 0.58447265625, 0.09716796875, 1737.634187, -58, -824, -2656
16.555234, 0.01922607421875, 0.00848388671875, 0.01727294921875, -2.98095703125, 0.58251953125, 0.1064453125, 1738.037878, -66, -814, -2651
16.575851, 0.0218505859375, 0.00775146484375, 0.01239013671875, -2.97900390625, 0.580078125, 0.107421875, 1738.44157, -60, -838, -2661
16.596468, 0.027587890625, 0.01300048828125, 0.00872802734375, -2.9638671875, 0.57373046875, 0.1162109375, 1738.845261, -55, -815, -2631
16.617085, 0.02325439453125, 0.0205078125, 0.00537109375, -2.94775390625, 0.57568359375, 0.12744140625, 1739.248953, -266, -1054, -2897
16.637702, 0.013671875, 0.0255126953125, 0.00531005859375, -2.93896484375, 0.5810546875, 0.134765625, 1739.652644, -429, -1083, -3009
16.658318, 0.0037841796875, 0.0284423828125, 0.00250244140625, -2.9345703125, 0.58837890625, 0.14013671875, 1740.056335, -138, -980, -2772
16.678935, 0.00189208984375, 0.03057861328125, 0.00274658203125, -2.92822265625, 0.5869140625, 0.14404296875, 1740.460027, -85, -978, -2638
16.699552, 0.0084228515625, 0.03826904296875, -0.00103759765625, -2.90869140625, 0.580078125, 0.15576171875, 1740.863718, -102, -976, -2663
16.720168, 0.01239013671875, 0.04425048828125, -0.00244140625, -2.89306640625, 0.57373046875, 0.16455078125, 1741.267409, -102, -969, -2639
16.740785, 0.002685546875, 0.04376220703125, -0.00567626953125, -2.8955078125, 0.58203125, 0.16552734375, 1741.671101, -93, -946, -2659
16.761402, 0.00494384765625, 0.03045654296875, -0.00506591796875, -2.9169921875, 0.578125, 0.1494140625, 1742.074792, -93, -974, -2667
16.782018, 0.00396728515625, 0.03228759765625, -0.00714111328125, -2.91162109375, 0.57763671875, 0.15283203125, 1742.478483, -89, -962, -2690
16.802635, 0.00274658203125, 0.03546142578125, -0.00885009765625, -2.90380859375, 0.5771484375, 0.158203125, 1742.882175, -106, -993, -2665
16.823252, -0.00714111328125, 0.04058837890625, -0.0091552734375, -2.896484375, 0.58349609375, 0.16552734375, 1743.285866, -113, -954, -2663
16.843869, -0.0096435546875, 0.041015625, -0.0087890625, -2.89453125, 0.5830078125, 0.16650390625, 1743.689558, -117, -969, -2665
16.864486, 0.0006103515625, 0.0372314453125, -0.01080322265625, -2.89501953125, 0.5732421875, 0.1630859375, 1744.093249, -85, -951, -2689
16.885102, 0.00909423828125, 0.0347900390625, -0.01422119140625, -2.8935546875, 0.5654296875, 0.1611328125, 1744.49694, -281, -819, -2950
16.905719, -0.001708984375, 0.0330810546875, -0.01593017578125, -2.89990234375, 0.57470703125, 0.16015625, 1744.900632, -142, -925, -2787
16.926336, -0.0126953125, 0.03326416015625, -0.01251220703125, -2.90283203125, 0.58056640625, 0.15966796875, 1745.304323, -51, -932, -2504
16.946952, -0.01806640625, 0.03436279296875, -0.01171875, -2.90185546875, 0.5830078125, 0.16162109375, 1745.708015, -51, -948, -2593
16.967569, -0.02166748046875, 0.033203125, -0.0162353515625, -2.904296875, 0.58740234375, 0.1611328125, 1746.111706, -51, -936, -2590
16.988186, -0.0201416015625, 0.0289306640625, -0.015869140625, -2.91015625, 0.58447265625, 0.15625, 1746.515397, -83, -965, -2581
17.008803, -0.021728515625, 0.0233154296875, -0.01446533203125, -2.92041015625, 0.583984375, 0.14892578125, 1746.919089, -89, -955, -2606
17.029419, -0.0189208984375, 0.0211181640625, -0.0167236328125, -2.921875, 0.58154296875, 0.14697265625, 1747.32278, -77, -955, -2602
17.050036, -0.0164794921875, 0.02130126953125, -0.01751708984375, -2.919921875, 0.57861328125, 0.1474609375, 1747.726471, -66, -964, -2589
17.070653, -0.0238037109375, 0.01800537109375, -0.0196533203125, -2.92822265625, 0.5849609375, 0.1435546875, 1748.130163, -70, -971, -2605
17.09127, -0.02935791015625, 0.011474609375, -0.01348876953125, -2.94189453125, 0.58544921875, 0.13427734375, 1748.533854, -81, -977, -2615
17.111886, -0.0374755859375, 0.0084228515625, -0.017822265625, -2.9501953125, 0.59423828125, 0.13134765625, 1748.937546, -72, -954, -2626
17.132503, -0.0333251953125, -0.00030517578125, -0.0172119140625, -2.96435546875, 0.58984375, 0.11962890625, 1749.341237, -70, -957, -2602
17.15312, -0.02935791015625, -0.0059814453125, -0.0181884765625, -2.9736328125, 0.5859375, 0.1123046875, 1749.744928, -79, -955, -2618
17.173736, -0.03680419921875, -0.01434326171875, -0.01873779296875, -2.99169921875, 0.5927734375, 0.1015625, 1750.148619, -205, -896, -2864
17.194353, -0.02716064453125, -0.01763916015625, -0.013916015625, -2.9951171875, 0.580078125, 0.0966796875, 1750.552311, -410, -1128, -2960
17.21497, -0.00701904296875, -0.01678466796875, -0.0103759765625, -2.98779296875, 0.55908203125, 0.09716796875, 1750.956002, -414, -1206, -2929
17.235587, 0.00054931640625, -0.0111083984375, -0.01275634765625, -2.9736328125, 0.5517578125, 0.10400390625, 1751.359694, -110, -1103, -2552
17.256203, -0.0025634765625, -0.0150146484375, -0.00750732421875, -2.98291015625, 0.55126953125, 0.09814453125, 1751.763385, -96, -1056, -2613
17.27682, -0.00653076171875, -0.01678466796875, -0.00885009765625, -2.98828125, 0.5546875, 0.095703125, 1752.167077, -93, -1060, -2610
17.297437, -0.01202392578125, -0.0245361328125, -0.00677490234375, -3.00537109375, 0.55810546875, 0.08544921875, 1752.570768, -102, -1039, -2606
17.318054, -0.01416015625, -0.032470703125, -0.0068359375, -3.0224609375, 0.5595703125, 0.07470703125, 1752.974459, -108, -1060, -2600
17.33867, -0.01080322265625, -0.03509521484375, -0.001220703125, -3.02783203125, 0.552734375, 0.0703125, 1753.378151, -83, -1060, -2617
17.359287, 0.008544921875, -0.03717041015625, 0.00177001953125, -3.02783203125, 0.53271484375, 0.06689453125, 1753.781842, -106, -1054, -2616
17.379904, 0.01177978515625, -0.03192138671875, -0.00238037109375, -3.0166015625, 0.53076171875, 0.07373046875, 1754.185533, -81, -1053, -2614
17.400521, 0.0072021484375, -0.03631591796875, 0.001220703125, -3.02783203125, 0.53271484375, 0.06689453125, 1754.589225, -123, -1052, -2620
17.421137, 0.0029296875, -0.03729248046875, 0.001708984375, -3.03173828125, 0.53564453125, 0.0654296875, 1754.992916, -87, -1055, -2609
17.441754, -0.0035400390625, -0.03521728515625, 0.0032958984375, -3.02978515625, 0.5400390625, 0.06689453125, 1755.396607, -104, -1044, -2610
17.462371, -0.001220703125, -0.0360107421875, 0.0042724609375, -3.03173828125, 0.53662109375, 0.0654296875, 1755.800299, -191, -864, -2876
17.482987, 0.00360107421875, -0.0325927734375, 0.00079345703125, -3.02392578125, 0.533203125, 0.0693359375, 1756.20399, -89, -862, -2671
17.503604, 0.0101318359375, -0.03125, 0.0003662109375, -3.0205078125, 0.52685546875, 0.0703125, 1756.607682, -66, -766, -2659
17.524221, 0.00762939453125, -0.02996826171875, -0.001953125, -3.01904296875, 0.52978515625, 0.07177734375, 1757.011373, -81, -765, -2641
17.544838, -0.00262451171875, -0.0269775390625, 0.00164794921875, -3.0166015625, 0.53662109375, 0.07470703125, 1757.415064, -72, -782, -2683
17.565454, -0.01031494140625, -0.0238037109375, 0.00250244140625, -3.0126953125, 0.54248046875, 0.07763671875, 1757.818756, -68, -786, -2683
17.586071, -0.009765625, -0.02447509765625, 0.0025634765625, -3.01513671875, 0.54150390625, 0.076171875, 1758.222447, -70, -788, -2688
17.606688, -0.00250244140625, -0.0257568359375, 0.000732421875, -3.0166015625, 0.53515625, 0.07421875, 1758.626138, -62, -782, -2653
17.627305, 0.00262451171875, -0.024169921875, 0.00030517578125, -3.0126953125, 0.5302734375, 0.07568359375, 1759.02983, -79, -771, -2663
17.647921, 0.00360107421875, -0.01947021484375, -0.001220703125, -3.0029296875, 0.529296875, 0.08154296875, 1759.433521, -81, -803, -2683
17.668538, -0.0009765625, -0.013671875, -0.0008544921875, -2.9931640625, 0.53271484375, 0.087890625, 1759.837213, -89, -797, -2706
17.689155, -0.00823974609375, -0.00970458984375, -0.0032958984375, -2.98779296875, 0.5400390625, 0.0927734375, 1760.240904, -81, -816, -2712
17.709771, -0.01025390625, -0.00433349609375, -0.00250244140625, -2.97802734375, 0.541015625, 0.09912109375, 1760.644595, -79, -798, -2684
17.730388, -0.0086669921875, -0.0003662109375, -0.00335693359375, -2.9697265625, 0.53955078125, 0.103515625, 1761.048287, -98, -791, -2677
17.751005, -0.008056640625, 0.00408935546875, -0.00592041015625, -2.9609375, 0.53955078125, 0.109375, 1761.451978, -112, -788, -2728
17.771622, -0.00396728515625, 0.0086669921875, -0.00830078125, -2.95068359375, 0.53662109375, 0.115234375, 1761.85567, -85, -792, -2703
17.792239, -0.00555419921875, 0.01373291015625, -0.006591796875, -2.94140625, 0.53662109375, 0.12060546875, 1762.259361, -89, -804, -2706
17.812855, -0.01470947265625, 0.0186767578125, -0.006103515625, -2.935546875, 0.54443359375, 0.12646484375, 1762.663052, -93, -794, -2680
17.833472, -0.01849365234375, 0.01922607421875, -0.00775146484375, -2.93603515625, 0.54833984375, 0.12744140625, 1763.066744, -89, -824, -2705
17.854089, -0.01458740234375, 0.0225830078125, -0.007080078125, -2.927734375, 0.5439453125, 0.13134765625, 1763.470435, -106, -803, -2688
17.874705, -0.0123291015625, 0.02490234375, -0.00994873046875, -2.92236328125, 0.54345703125, 0.134765625, 1763.874126, -83, -795, -2683
17.895322, -0.013671875, 0.02655029296875, -0.0113525390625, -2.919921875, 0.54541015625, 0.13671875, 1764.277818, -102, -822, -2713
17.915939, -0.01611328125, 0.0281982421875, -0.010498046875, -2.91748046875, 0.546875, 0.13916015625, 1764.681509, -157, -847, -2810
17.936555, -0.01885986328125, 0.03106689453125, -0.01092529296875, -2.9130859375, 0.5498046875, 0.142578125, 1765.0852, -129, -1037, -2718
17.957172, -0.02215576171875, 0.035400390625, -0.01214599609375, -2.90576171875, 0.55322265625, 0.1484375, 1765.488892, -123, -1101, -2603
17.977789, -0.0211181640625, 0.0396728515625, -0.01654052734375, -2.89697265625, 0.5546875, 0.15478515625, 1765.892583, -110, -1098, -2610
17.998406, -0.01873779296875, 0.04010009765625, -0.0155029296875, -2.89453125, 0.55224609375, 0.15576171875, 1766.296275, -117, -1095, -2615
18.019023, -0.017333984375, 0.03802490234375, -0.01593017578125, -2.8974609375, 0.5517578125, 0.15380859375, 1766.699966, -114, -1113, -2616
